time,ax,ay,az,gx,gy,gz,mx,my,mz209.00,-0.08,-0.40,-10.18,0.00,-0.01,-0.01,-28.29,-20.63,45.69213.00,-0.08,-0.40,-10.18,0.00,-0.01,-0.01,-28.29,-20.63,45.69216.00,-0.08,-0.40,-10.18,0.00,-0.01,-0.01,-28.29,-20.63,45.69219.00,-0.08,-0.40,-10.18,0.00,-0.01,-0.01,-28.29,-20.63,45.69222.00,-0.07,-0.38,-10.19,0.00,-0.01,-0.01,-28.29,-20.63,45.69226.00,-0.07,-0.38,-10.19,0.00,-0.01,-0.01,-28.29,-20.63,45.69229.00,-0.07,-0.38,-10.19,0.00,-0.01,-0.01,-28.29,-20.63,45.69232.00,-0.07,-0.38,-10.19,0.00,-0.01,-0.01,-28.29,-20.63,45.69236.00,-0.07,-0.38,-10.19,0.00,-0.01,-0.01,-28.29,-20.63,45.69239.00,-0.07,-0.38,-10.19,0.00,-0.01,-0.01,-28.29,-20.63,45.69242.00,-0.07,-0.40,-10.18,0.00,-0.01,-0.01,-28.29,-20.63,45.69245.00,-0.07,-0.40,-10.18,0.00,-0.01,-0.01,-28.29,-20.63,45.69249.00,-0.07,-0.40,-10.18,0.00,-0.01,-0.01,-28.29,-20.63,45.69252.00,-0.07,-0.40,-10.18,0.00,-0.01,-0.01,-28.29,-20.63,45.69255.00,-0.07,-0.40,-10.18,0.00,-0.01,-0.01,-28.29,-20.63,45.69258.00,-0.07,-0.40,-10.18,0.00,-0.01,-0.01,-28.29,-20.63,45.69262.00,-0.07,-0.40,-10.20,0.00,-0.01,-0.01,-27.41,-19.39,45.52265.00,-0.07,-0.40,-10.20,0.00,-0.01,-0.01,-27.41,-19.39,45.52268.00,-0.07,-0.40,-10.20,0.00,-0.01,-0.01,-27.41,-19.39,45.52272.00,-0.07,-0.40,-10.20,0.00,-0.01,-0.01,-27.41,-19.39,45.52275.00,-0.07,-0.40,-10.20,0.00,-0.01,-0.01,-27.41,-19.39,45.52278.00,-0.07,-0.40,-10.20,0.00,-0.01,-0.01,-27.41,-19.39,45.52282.00,-0.08,-0.39,-10.21,0.00,-0.01,-0.01,-27.41,-19.39,45.52285.00,-0.08,-0.39,-10.21,0.00,-0.01,-0.01,-27.41,-19.39,45.52288.00,-0.08,-0.39,-10.21,0.00,-0.01,-0.01,-27.41,-19.39,45.52291.00,-0.08,-0.39,-10.21,0.00,-0.01,-0.01,-27.41,-19.39,45.52295.00,-0.08,-0.39,-10.21,0.00,-0.01,-0.01,-27.41,-19.39,45.52298.00,-0.08,-0.39,-10.21,0.00,-0.01,-0.01,-27.41,-19.39,45.52301.00,-0.08,-0.39,-10.18,0.00,-0.01,-0.01,-27.41,-19.39,45.52305.00,-0.08,-0.39,-10.18,0.00,-0.01,-0.01,-27.41,-19.39,45.52308.00,-0.08,-0.39,-10.18,0.00,-0.01,-0.01,-27.41,-19.39,45.52311.00,-0.08,-0.39,-10.18,0.00,-0.01,-0.01,-27.41,-19.39,45.52315.00,-0.08,-0.39,-10.18,0.00,-0.01,-0.01,-27.41,-19.39,45.52318.00,-0.08,-0.39,-10.18,0.00,-0.01,-0.01,-27.41,-19.39,45.52321.00,-0.08,-0.39,-10.19,0.00,-0.01,-0.01,-27.41,-19.39,45.52325.00,-0.08,-0.39,-10.19,0.00,-0.01,-0.01,-27.41,-19.39,45.52328.00,-0.08,-0.39,-10.19,0.00,-0.01,-0.01,-27.41,-19.39,45.52331.00,-0.08,-0.39,-10.19,0.00,-0.01,-0.01,-27.41,-19.39,45.52334.00,-0.08,-0.39,-10.19,0.00,-0.01,-0.01,-27.41,-19.39,45.52338.00,-0.08,-0.39,-10.19,0.00,-0.01,-0.01,-27.41,-19.39,45.52341.00,-0.06,-0.39,-10.19,0.00,-0.01,-0.01,-27.41,-19.39,45.52345.00,-0.06,-0.39,-10.19,0.00,-0.01,-0.01,-27.41,-19.39,45.52348.00,-0.06,-0.39,-10.19,0.00,-0.01,-0.01,-27.41,-19.39,45.52351.00,-0.06,-0.39,-10.19,0.00,-0.01,-0.01,-27.41,-19.39,45.52355.00,-0.06,-0.39,-10.19,0.00,-0.01,-0.01,-27.41,-19.39,45.52358.00,-0.06,-0.39,-10.19,0.00,-0.01,-0.01,-27.41,-19.39,45.52361.00,-0.07,-0.40,-10.19,-0.00,-0.01,-0.01,-27.41,-19.39,45.52365.00,-0.07,-0.40,-10.19,-0.00,-0.01,-0.01,-27.41,-19.39,45.52368.00,-0.07,-0.40,-10.19,-0.00,-0.01,-0.01,-27.41,-19.39,45.52371.00,-0.07,-0.40,-10.19,-0.00,-0.01,-0.01,-27.41,-19.39,45.52375.00,-0.07,-0.40,-10.19,-0.00,-0.01,-0.01,-27.41,-19.39,45.52378.00,-0.07,-0.40,-10.19,-0.00,-0.01,-0.01,-27.41,-19.39,45.52381.00,-0.08,-0.39,-10.19,0.00,-0.01,-0.01,-27.41,-19.39,45.52385.00,-0.08,-0.39,-10.19,0.00,-0.01,-0.01,-27.41,-19.39,45.52388.00,-0.08,-0.39,-10.19,0.00,-0.01,-0.01,-27.41,-19.39,45.52391.00,-0.08,-0.39,-10.19,0.00,-0.01,-0.01,-27.41,-19.39,45.52395.00,-0.08,-0.39,-10.19,0.00,-0.01,-0.01,-27.41,-19.39,45.52398.00,-0.08,-0.39,-10.19,0.00,-0.01,-0.01,-27.41,-19.39,45.52401.00,-0.07,-0.41,-10.21,0.00,-0.01,-0.01,-28.11,-18.69,44.50405.00,-0.07,-0.41,-10.21,0.00,-0.01,-0.01,-28.11,-18.69,44.50408.00,-0.07,-0.41,-10.21,0.00,-0.01,-0.01,-28.11,-18.69,44.50411.00,-0.07,-0.41,-10.21,0.00,-0.01,-0.01,-28.11,-18.69,44.50415.00,-0.07,-0.41,-10.21,0.00,-0.01,-0.01,-28.11,-18.69,44.50418.00,-0.07,-0.41,-10.21,0.00,-0.01,-0.01,-28.11,-18.69,44.50421.00,-0.08,-0.40,-10.17,0.00,-0.01,-0.01,-28.11,-18.69,44.50425.00,-0.08,-0.40,-10.17,0.00,-0.01,-0.01,-28.11,-18.69,44.50428.00,-0.08,-0.40,-10.17,0.00,-0.01,-0.01,-28.11,-18.69,44.50431.00,-0.08,-0.40,-10.17,0.00,-0.01,-0.01,-28.11,-18.69,44.50434.00,-0.08,-0.40,-10.17,0.00,-0.01,-0.01,-28.11,-18.69,44.50438.00,-0.08,-0.40,-10.17,0.00,-0.01,-0.01,-28.11,-18.69,44.50441.00,-0.07,-0.40,-10.19,0.00,-0.01,-0.01,-28.11,-18.69,44.50445.00,-0.07,-0.40,-10.19,0.00,-0.01,-0.01,-28.11,-18.69,44.50448.00,-0.07,-0.40,-10.19,0.00,-0.01,-0.01,-28.11,-18.69,44.50452.00,-0.07,-0.40,-10.19,0.00,-0.01,-0.01,-28.11,-18.69,44.50455.00,-0.07,-0.40,-10.19,0.00,-0.01,-0.01,-28.11,-18.69,44.50458.00,-0.07,-0.40,-10.19,0.00,-0.01,-0.01,-28.11,-18.69,44.50462.00,-0.07,-0.41,-10.17,0.00,-0.01,-0.01,-28.11,-18.69,44.50465.00,-0.07,-0.41,-10.17,0.00,-0.01,-0.01,-28.11,-18.69,44.50468.00,-0.07,-0.41,-10.17,0.00,-0.01,-0.01,-28.11,-18.69,44.50472.00,-0.07,-0.41,-10.17,0.00,-0.01,-0.01,-28.11,-18.69,44.50475.00,-0.07,-0.41,-10.17,0.00,-0.01,-0.01,-28.11,-18.69,44.50478.00,-0.07,-0.41,-10.17,0.00,-0.01,-0.01,-28.11,-18.69,44.50482.00,-0.07,-0.42,-10.19,0.00,-0.01,-0.01,-28.11,-18.69,44.50485.00,-0.07,-0.42,-10.19,0.00,-0.01,-0.01,-28.11,-18.69,44.50488.00,-0.07,-0.42,-10.19,0.00,-0.01,-0.01,-28.11,-18.69,44.50492.00,-0.07,-0.42,-10.19,0.00,-0.01,-0.01,-28.11,-18.69,44.50495.00,-0.07,-0.42,-10.19,0.00,-0.01,-0.01,-28.11,-18.69,44.50498.00,-0.07,-0.42,-10.19,0.00,-0.01,-0.01,-28.11,-18.69,44.50502.00,-0.08,-0.41,-10.19,0.00,-0.01,-0.01,-28.11,-18.69,44.50505.00,-0.08,-0.41,-10.19,0.00,-0.01,-0.01,-28.11,-18.69,44.50508.00,-0.08,-0.41,-10.19,0.00,-0.01,-0.01,-28.11,-18.69,44.50512.00,-0.08,-0.41,-10.19,0.00,-0.01,-0.01,-28.11,-18.69,44.50515.00,-0.08,-0.41,-10.19,0.00,-0.01,-0.01,-28.11,-18.69,44.50518.00,-0.08,-0.41,-10.19,0.00,-0.01,-0.01,-28.11,-18.69,44.50522.00,-0.07,-0.40,-10.21,0.00,-0.01,-0.01,-28.64,-18.51,45.01525.00,-0.07,-0.40,-10.21,0.00,-0.01,-0.01,-28.64,-18.51,45.01528.00,-0.07,-0.40,-10.21,0.00,-0.01,-0.01,-28.64,-18.51,45.01531.00,-0.07,-0.40,-10.21,0.00,-0.01,-0.01,-28.64,-18.51,45.01535.00,-0.07,-0.40,-10.21,0.00,-0.01,-0.01,-28.64,-18.51,45.01538.00,-0.07,-0.40,-10.21,0.00,-0.01,-0.01,-28.64,-18.51,45.01542.00,-0.07,-0.40,-10.18,0.00,-0.01,-0.01,-28.64,-18.51,45.01545.00,-0.07,-0.40,-10.18,0.00,-0.01,-0.01,-28.64,-18.51,45.01548.00,-0.07,-0.40,-10.18,0.00,-0.01,-0.01,-28.64,-18.51,45.01552.00,-0.07,-0.40,-10.18,0.00,-0.01,-0.01,-28.64,-18.51,45.01555.00,-0.07,-0.40,-10.18,0.00,-0.01,-0.01,-28.64,-18.51,45.01558.00,-0.07,-0.40,-10.18,0.00,-0.01,-0.01,-28.64,-18.51,45.01562.00,-0.08,-0.41,-10.21,0.00,-0.01,-0.01,-28.64,-18.51,45.01565.00,-0.08,-0.41,-10.21,0.00,-0.01,-0.01,-28.64,-18.51,45.01569.00,-0.08,-0.41,-10.21,0.00,-0.01,-0.01,-28.64,-18.51,45.01572.00,-0.08,-0.41,-10.21,0.00,-0.01,-0.01,-28.64,-18.51,45.01575.00,-0.08,-0.41,-10.21,0.00,-0.01,-0.01,-28.64,-18.51,45.01579.00,-0.08,-0.41,-10.21,0.00,-0.01,-0.01,-28.64,-18.51,45.01582.00,-0.08,-0.41,-10.20,0.00,-0.01,-0.01,-28.64,-18.51,45.01585.00,-0.08,-0.41,-10.20,0.00,-0.01,-0.01,-28.64,-18.51,45.01589.00,-0.08,-0.41,-10.20,0.00,-0.01,-0.01,-28.64,-18.51,45.01592.00,-0.08,-0.41,-10.20,0.00,-0.01,-0.01,-28.64,-18.51,45.01595.00,-0.08,-0.41,-10.20,0.00,-0.01,-0.01,-28.64,-18.51,45.01598.00,-0.08,-0.41,-10.20,0.00,-0.01,-0.01,-28.64,-18.51,45.01602.00,-0.08,-0.38,-10.17,0.00,-0.01,-0.01,-28.64,-18.51,45.01605.00,-0.08,-0.38,-10.17,0.00,-0.01,-0.01,-28.64,-18.51,45.01609.00,-0.08,-0.38,-10.17,0.00,-0.01,-0.01,-28.64,-18.51,45.01612.00,-0.08,-0.38,-10.17,0.00,-0.01,-0.01,-28.64,-18.51,45.01615.00,-0.08,-0.38,-10.17,0.00,-0.01,-0.01,-28.64,-18.51,45.01619.00,-0.08,-0.38,-10.17,0.00,-0.01,-0.01,-28.64,-18.51,45.01622.00,-0.06,-0.39,-10.20,0.00,-0.01,-0.01,-28.64,-18.51,45.01626.00,-0.06,-0.39,-10.20,0.00,-0.01,-0.01,-28.64,-18.51,45.01629.00,-0.06,-0.39,-10.20,0.00,-0.01,-0.01,-28.64,-18.51,45.01632.00,-0.06,-0.39,-10.20,0.00,-0.01,-0.01,-28.64,-18.51,45.01635.00,-0.06,-0.39,-10.20,0.00,-0.01,-0.01,-28.64,-18.51,45.01639.00,-0.06,-0.39,-10.20,0.00,-0.01,-0.01,-28.64,-18.51,45.01642.00,-0.08,-0.40,-10.20,0.00,-0.01,-0.01,-29.52,-21.51,45.18645.00,-0.08,-0.40,-10.20,0.00,-0.01,-0.01,-29.52,-21.51,45.18649.00,-0.08,-0.40,-10.20,0.00,-0.01,-0.01,-29.52,-21.51,45.18652.00,-0.08,-0.40,-10.20,0.00,-0.01,-0.01,-29.52,-21.51,45.18656.00,-0.08,-0.40,-10.20,0.00,-0.01,-0.01,-29.52,-21.51,45.18659.00,-0.08,-0.40,-10.20,0.00,-0.01,-0.01,-29.52,-21.51,45.18662.00,-0.07,-0.40,-10.22,0.00,-0.01,-0.01,-29.52,-21.51,45.18666.00,-0.07,-0.40,-10.22,0.00,-0.01,-0.01,-29.52,-21.51,45.18669.00,-0.07,-0.40,-10.22,0.00,-0.01,-0.01,-29.52,-21.51,45.18672.00,-0.07,-0.40,-10.22,0.00,-0.01,-0.01,-29.52,-21.51,45.18676.00,-0.07,-0.40,-10.22,0.00,-0.01,-0.01,-29.52,-21.51,45.18679.00,-0.07,-0.40,-10.22,0.00,-0.01,-0.01,-29.52,-21.51,45.18683.00,-0.07,-0.40,-10.18,0.00,-0.01,-0.01,-29.52,-21.51,45.18686.00,-0.07,-0.40,-10.18,0.00,-0.01,-0.01,-29.52,-21.51,45.18689.00,-0.07,-0.40,-10.18,0.00,-0.01,-0.01,-29.52,-21.51,45.18693.00,-0.07,-0.40,-10.18,0.00,-0.01,-0.01,-29.52,-21.51,45.18696.00,-0.07,-0.40,-10.18,0.00,-0.01,-0.01,-29.52,-21.51,45.18699.00,-0.07,-0.40,-10.18,0.00,-0.01,-0.01,-29.52,-21.51,45.18703.00,-0.07,-0.39,-10.18,0.00,-0.01,-0.01,-29.52,-21.51,45.18706.00,-0.07,-0.39,-10.18,0.00,-0.01,-0.01,-29.52,-21.51,45.18710.00,-0.07,-0.39,-10.18,0.00,-0.01,-0.01,-29.52,-21.51,45.18713.00,-0.07,-0.39,-10.18,0.00,-0.01,-0.01,-29.52,-21.51,45.18716.00,-0.07,-0.39,-10.18,0.00,-0.01,-0.01,-29.52,-21.51,45.18720.00,-0.07,-0.39,-10.18,0.00,-0.01,-0.01,-29.52,-21.51,45.18723.00,-0.08,-0.38,-10.16,0.00,-0.01,-0.01,-29.52,-21.51,45.18726.00,-0.08,-0.38,-10.16,0.00,-0.01,-0.01,-29.52,-21.51,45.18730.00,-0.08,-0.38,-10.16,0.00,-0.01,-0.01,-29.52,-21.51,45.18733.00,-0.08,-0.38,-10.16,0.00,-0.01,-0.01,-29.52,-21.51,45.18736.00,-0.08,-0.38,-10.16,0.00,-0.01,-0.01,-29.52,-21.51,45.18740.00,-0.08,-0.38,-10.16,0.00,-0.01,-0.01,-29.52,-21.51,45.18743.00,-0.07,-0.42,-10.19,0.00,-0.01,-0.01,-29.52,-21.51,45.18746.00,-0.07,-0.42,-10.19,0.00,-0.01,-0.01,-29.52,-21.51,45.18750.00,-0.07,-0.42,-10.19,0.00,-0.01,-0.01,-29.52,-21.51,45.18753.00,-0.07,-0.42,-10.19,0.00,-0.01,-0.01,-29.52,-21.51,45.18757.00,-0.07,-0.42,-10.19,0.00,-0.01,-0.01,-29.52,-21.51,45.18760.00,-0.07,-0.42,-10.19,0.00,-0.01,-0.01,-29.52,-21.51,45.18763.00,-0.08,-0.40,-10.21,0.00,-0.01,-0.01,-29.52,-19.04,45.52767.00,-0.08,-0.40,-10.21,0.00,-0.01,-0.01,-29.52,-19.04,45.52770.00,-0.08,-0.40,-10.21,0.00,-0.01,-0.01,-29.52,-19.04,45.52774.00,-0.08,-0.40,-10.21,0.00,-0.01,-0.01,-29.52,-19.04,45.52777.00,-0.08,-0.40,-10.21,0.00,-0.01,-0.01,-29.52,-19.04,45.52780.00,-0.08,-0.40,-10.21,0.00,-0.01,-0.01,-29.52,-19.04,45.52784.00,-0.07,-0.39,-10.21,0.00,-0.01,-0.01,-29.52,-19.04,45.52787.00,-0.07,-0.39,-10.21,0.00,-0.01,-0.01,-29.52,-19.04,45.52790.00,-0.07,-0.39,-10.21,0.00,-0.01,-0.01,-29.52,-19.04,45.52794.00,-0.07,-0.39,-10.21,0.00,-0.01,-0.01,-29.52,-19.04,45.52797.00,-0.07,-0.39,-10.21,0.00,-0.01,-0.01,-29.52,-19.04,45.52801.00,-0.07,-0.39,-10.21,0.00,-0.01,-0.01,-29.52,-19.04,45.52804.00,-0.07,-0.41,-10.21,0.00,-0.01,-0.01,-29.52,-19.04,45.52808.00,-0.07,-0.41,-10.21,0.00,-0.01,-0.01,-29.52,-19.04,45.52811.00,-0.07,-0.41,-10.21,0.00,-0.01,-0.01,-29.52,-19.04,45.52815.00,-0.07,-0.41,-10.21,0.00,-0.01,-0.01,-29.52,-19.04,45.52818.00,-0.07,-0.41,-10.21,0.00,-0.01,-0.01,-29.52,-19.04,45.52821.00,-0.07,-0.40,-10.22,0.00,-0.01,-0.01,-29.52,-19.04,45.52825.00,-0.07,-0.40,-10.22,0.00,-0.01,-0.01,-29.52,-19.04,45.52828.00,-0.07,-0.40,-10.22,0.00,-0.01,-0.01,-29.52,-19.04,45.52831.00,-0.07,-0.40,-10.22,0.00,-0.01,-0.01,-29.52,-19.04,45.52835.00,-0.07,-0.40,-10.22,0.00,-0.01,-0.01,-29.52,-19.04,45.52838.00,-0.07,-0.40,-10.22,0.00,-0.01,-0.01,-29.52,-19.04,45.52842.00,-0.07,-0.40,-10.20,0.00,-0.01,-0.01,-29.52,-19.04,45.52845.00,-0.07,-0.40,-10.20,0.00,-0.01,-0.01,-29.52,-19.04,45.52848.00,-0.07,-0.40,-10.20,0.00,-0.01,-0.01,-29.52,-19.04,45.52852.00,-0.07,-0.40,-10.20,0.00,-0.01,-0.01,-29.52,-19.04,45.52855.00,-0.07,-0.40,-10.20,0.00,-0.01,-0.01,-29.52,-19.04,45.52858.00,-0.07,-0.40,-10.20,0.00,-0.01,-0.01,-29.52,-19.04,45.52862.00,-0.08,-0.39,-10.20,0.00,-0.01,-0.01,-29.52,-19.04,45.52865.00,-0.08,-0.39,-10.20,0.00,-0.01,-0.01,-29.52,-19.04,45.52869.00,-0.08,-0.39,-10.20,0.00,-0.01,-0.01,-29.52,-19.04,45.52872.00,-0.08,-0.39,-10.20,0.00,-0.01,-0.01,-29.52,-19.04,45.52875.00,-0.08,-0.39,-10.20,0.00,-0.01,-0.01,-29.52,-19.04,45.52879.00,-0.08,-0.39,-10.20,0.00,-0.01,-0.01,-29.52,-19.04,45.52883.00,-0.08,-0.40,-10.18,0.00,-0.01,-0.01,-29.52,-19.04,45.52886.00,-0.08,-0.40,-10.18,0.00,-0.01,-0.01,-29.52,-19.04,45.52889.00,-0.08,-0.40,-10.18,0.00,-0.01,-0.01,-29.52,-19.04,45.52893.00,-0.08,-0.40,-10.18,0.00,-0.01,-0.01,-29.52,-19.04,45.52896.00,-0.08,-0.40,-10.18,0.00,-0.01,-0.01,-29.52,-19.04,45.52900.00,-0.08,-0.40,-10.18,0.00,-0.01,-0.01,-29.52,-19.04,45.52903.00,-0.08,-0.42,-10.20,0.00,-0.01,-0.01,-28.29,-20.98,44.33906.00,-0.08,-0.42,-10.20,0.00,-0.01,-0.01,-28.29,-20.98,44.33910.00,-0.08,-0.42,-10.20,0.00,-0.01,-0.01,-28.29,-20.98,44.33913.00,-0.08,-0.42,-10.20,0.00,-0.01,-0.01,-28.29,-20.98,44.33917.00,-0.08,-0.42,-10.20,0.00,-0.01,-0.01,-28.29,-20.98,44.33920.00,-0.08,-0.42,-10.20,0.00,-0.01,-0.01,-28.29,-20.98,44.33923.00,-0.08,-0.40,-10.21,0.00,-0.01,-0.01,-28.29,-20.98,44.33927.00,-0.08,-0.40,-10.21,0.00,-0.01,-0.01,-28.29,-20.98,44.33930.00,-0.08,-0.40,-10.21,0.00,-0.01,-0.01,-28.29,-20.98,44.33934.00,-0.08,-0.40,-10.21,0.00,-0.01,-0.01,-28.29,-20.98,44.33937.00,-0.08,-0.40,-10.21,0.00,-0.01,-0.01,-28.29,-20.98,44.33940.00,-0.08,-0.40,-10.21,0.00,-0.01,-0.01,-28.29,-20.98,44.33944.00,-0.07,-0.40,-10.19,0.00,-0.01,-0.01,-28.29,-20.98,44.33947.00,-0.07,-0.40,-10.19,0.00,-0.01,-0.01,-28.29,-20.98,44.33951.00,-0.07,-0.40,-10.19,0.00,-0.01,-0.01,-28.29,-20.98,44.33954.00,-0.07,-0.40,-10.19,0.00,-0.01,-0.01,-28.29,-20.98,44.33957.00,-0.07,-0.40,-10.19,0.00,-0.01,-0.01,-28.29,-20.98,44.33961.00,-0.07,-0.39,-10.18,0.00,-0.01,-0.01,-28.29,-20.98,44.33964.00,-0.07,-0.39,-10.18,0.00,-0.01,-0.01,-28.29,-20.98,44.33968.00,-0.07,-0.39,-10.18,0.00,-0.01,-0.01,-28.29,-20.98,44.33971.00,-0.07,-0.39,-10.18,0.00,-0.01,-0.01,-28.29,-20.98,44.33975.00,-0.07,-0.39,-10.18,0.00,-0.01,-0.01,-28.29,-20.98,44.33978.00,-0.07,-0.39,-10.18,0.00,-0.01,-0.01,-28.29,-20.98,44.33981.00,-0.07,-0.38,-10.20,0.00,-0.01,-0.01,-28.29,-20.98,44.33985.00,-0.07,-0.38,-10.20,0.00,-0.01,-0.01,-28.29,-20.98,44.33988.00,-0.07,-0.38,-10.20,0.00,-0.01,-0.01,-28.29,-20.98,44.33992.00,-0.07,-0.38,-10.20,0.00,-0.01,-0.01,-28.29,-20.98,44.33995.00,-0.07,-0.38,-10.20,0.00,-0.01,-0.01,-28.29,-20.98,44.33999.00,-0.07,-0.38,-10.20,0.00,-0.01,-0.01,-28.29,-20.98,44.331002.00,-0.06,-0.40,-10.17,0.00,-0.01,-0.01,-28.29,-20.98,44.331005.00,-0.06,-0.40,-10.17,0.00,-0.01,-0.01,-28.29,-20.98,44.331009.00,-0.06,-0.40,-10.17,0.00,-0.01,-0.01,-28.29,-20.98,44.331012.00,-0.06,-0.40,-10.17,0.00,-0.01,-0.01,-28.29,-20.98,44.331016.00,-0.06,-0.40,-10.17,0.00,-0.01,-0.01,-28.29,-20.98,44.331019.00,-0.06,-0.40,-10.17,0.00,-0.01,-0.01,-28.29,-20.98,44.331022.00,-0.08,-0.40,-10.17,0.00,-0.01,-0.01,-28.29,-19.22,44.331026.00,-0.08,-0.40,-10.17,0.00,-0.01,-0.01,-28.29,-19.22,44.331029.00,-0.08,-0.40,-10.17,0.00,-0.01,-0.01,-28.29,-19.22,44.331033.00,-0.08,-0.40,-10.17,0.00,-0.01,-0.01,-28.29,-19.22,44.331036.00,-0.08,-0.40,-10.17,0.00,-0.01,-0.01,-28.29,-19.22,44.331039.00,-0.08,-0.40,-10.17,0.00,-0.01,-0.01,-28.29,-19.22,44.331043.00,-0.08,-0.40,-10.18,-0.00,-0.01,-0.01,-28.29,-19.22,44.331046.00,-0.08,-0.40,-10.18,-0.00,-0.01,-0.01,-28.29,-19.22,44.331050.00,-0.08,-0.40,-10.18,-0.00,-0.01,-0.01,-28.29,-19.22,44.331053.00,-0.08,-0.40,-10.18,-0.00,-0.01,-0.01,-28.29,-19.22,44.331057.00,-0.08,-0.40,-10.18,-0.00,-0.01,-0.01,-28.29,-19.22,44.331060.00,-0.08,-0.40,-10.18,-0.00,-0.01,-0.01,-28.29,-19.22,44.331064.00,-0.07,-0.40,-10.18,0.00,-0.01,-0.01,-28.29,-19.22,44.331067.00,-0.07,-0.40,-10.18,0.00,-0.01,-0.01,-28.29,-19.22,44.331070.00,-0.07,-0.40,-10.18,0.00,-0.01,-0.01,-28.29,-19.22,44.331074.00,-0.07,-0.40,-10.18,0.00,-0.01,-0.01,-28.29,-19.22,44.331077.00,-0.07,-0.40,-10.18,0.00,-0.01,-0.01,-28.29,-19.22,44.331081.00,-0.07,-0.40,-10.18,0.00,-0.01,-0.01,-28.29,-19.22,44.331084.00,-0.07,-0.39,-10.19,0.00,-0.01,-0.01,-28.29,-19.22,44.331087.00,-0.07,-0.39,-10.19,0.00,-0.01,-0.01,-28.29,-19.22,44.331091.00,-0.07,-0.39,-10.19,0.00,-0.01,-0.01,-28.29,-19.22,44.331094.00,-0.07,-0.39,-10.19,0.00,-0.01,-0.01,-28.29,-19.22,44.331098.00,-0.07,-0.39,-10.19,0.00,-0.01,-0.01,-28.29,-19.22,44.331101.00,-0.06,-0.41,-10.17,0.00,-0.01,-0.01,-28.29,-19.22,44.331105.00,-0.06,-0.41,-10.17,0.00,-0.01,-0.01,-28.29,-19.22,44.331108.00,-0.06,-0.41,-10.17,0.00,-0.01,-0.01,-28.29,-19.22,44.331111.00,-0.06,-0.41,-10.17,0.00,-0.01,-0.01,-28.29,-19.22,44.331115.00,-0.06,-0.41,-10.17,0.00,-0.01,-0.01,-28.29,-19.22,44.331118.00,-0.06,-0.41,-10.17,0.00,-0.01,-0.01,-28.29,-19.22,44.331122.00,-0.08,-0.41,-10.17,0.00,-0.01,-0.01,-28.29,-19.22,44.331125.00,-0.08,-0.41,-10.17,0.00,-0.01,-0.01,-28.29,-19.22,44.331128.00,-0.08,-0.41,-10.17,0.00,-0.01,-0.01,-28.29,-19.22,44.331132.00,-0.08,-0.41,-10.17,0.00,-0.01,-0.01,-28.29,-19.22,44.331135.00,-0.08,-0.41,-10.17,0.00,-0.01,-0.01,-28.29,-19.22,44.331139.00,-0.08,-0.41,-10.17,0.00,-0.01,-0.01,-28.29,-19.22,44.331142.00,-0.08,-0.40,-10.18,-0.00,-0.01,-0.01,-28.99,-18.86,45.011146.00,-0.08,-0.40,-10.18,-0.00,-0.01,-0.01,-28.99,-18.86,45.011149.00,-0.08,-0.40,-10.18,-0.00,-0.01,-0.01,-28.99,-18.86,45.011152.00,-0.08,-0.40,-10.18,-0.00,-0.01,-0.01,-28.99,-18.86,45.011156.00,-0.08,-0.40,-10.18,-0.00,-0.01,-0.01,-28.99,-18.86,45.011159.00,-0.08,-0.40,-10.18,-0.00,-0.01,-0.01,-28.99,-18.86,45.011163.00,-0.07,-0.39,-10.19,0.00,-0.01,-0.01,-28.99,-18.86,45.011166.00,-0.07,-0.39,-10.19,0.00,-0.01,-0.01,-28.99,-18.86,45.011170.00,-0.07,-0.39,-10.19,0.00,-0.01,-0.01,-28.99,-18.86,45.011173.00,-0.07,-0.39,-10.19,0.00,-0.01,-0.01,-28.99,-18.86,45.011177.00,-0.07,-0.39,-10.19,0.00,-0.01,-0.01,-28.99,-18.86,45.011180.00,-0.07,-0.39,-10.19,0.00,-0.01,-0.01,-28.99,-18.86,45.011183.00,-0.08,-0.38,-10.18,0.00,-0.01,-0.01,-28.99,-18.86,45.011187.00,-0.08,-0.38,-10.18,0.00,-0.01,-0.01,-28.99,-18.86,45.011190.00,-0.08,-0.38,-10.18,0.00,-0.01,-0.01,-28.99,-18.86,45.011194.00,-0.08,-0.38,-10.18,0.00,-0.01,-0.01,-28.99,-18.86,45.011197.00,-0.08,-0.38,-10.18,0.00,-0.01,-0.01,-28.99,-18.86,45.011201.00,-0.08,-0.38,-10.18,0.00,-0.01,-0.01,-28.99,-18.86,45.011204.00,-0.08,-0.39,-10.19,0.00,-0.01,-0.01,-28.99,-18.86,45.011207.00,-0.08,-0.39,-10.19,0.00,-0.01,-0.01,-28.99,-18.86,45.011211.00,-0.08,-0.39,-10.19,0.00,-0.01,-0.01,-28.99,-18.86,45.011214.00,-0.08,-0.39,-10.19,0.00,-0.01,-0.01,-28.99,-18.86,45.011218.00,-0.08,-0.39,-10.19,0.00,-0.01,-0.01,-28.99,-18.86,45.011221.00,-0.07,-0.41,-10.19,0.00,-0.01,-0.01,-28.99,-18.86,45.011225.00,-0.07,-0.41,-10.19,0.00,-0.01,-0.01,-28.99,-18.86,45.011228.00,-0.07,-0.41,-10.19,0.00,-0.01,-0.01,-28.99,-18.86,45.011232.00,-0.07,-0.41,-10.19,0.00,-0.01,-0.01,-28.99,-18.86,45.011235.00,-0.07,-0.41,-10.19,0.00,-0.01,-0.01,-28.99,-18.86,45.011239.00,-0.07,-0.41,-10.19,0.00,-0.01,-0.01,-28.99,-18.86,45.011242.00,-0.07,-0.40,-10.18,0.00,-0.01,-0.01,-28.99,-18.86,45.011245.00,-0.07,-0.40,-10.18,0.00,-0.01,-0.01,-28.99,-18.86,45.011249.00,-0.07,-0.40,-10.18,0.00,-0.01,-0.01,-28.99,-18.86,45.011252.00,-0.07,-0.40,-10.18,0.00,-0.01,-0.01,-28.99,-18.86,45.011256.00,-0.07,-0.40,-10.18,0.00,-0.01,-0.01,-28.99,-18.86,45.011259.00,-0.07,-0.40,-10.18,0.00,-0.01,-0.01,-28.99,-18.86,45.011263.00,-0.07,-0.39,-10.20,-0.00,-0.01,-0.01,-30.05,-19.22,43.991266.00,-0.07,-0.39,-10.20,-0.00,-0.01,-0.01,-30.05,-19.22,43.991269.00,-0.07,-0.39,-10.20,-0.00,-0.01,-0.01,-30.05,-19.22,43.991273.00,-0.07,-0.39,-10.20,-0.00,-0.01,-0.01,-30.05,-19.22,43.991276.00,-0.07,-0.39,-10.20,-0.00,-0.01,-0.01,-30.05,-19.22,43.991280.00,-0.07,-0.39,-10.20,-0.00,-0.01,-0.01,-30.05,-19.22,43.991283.00,-0.06,-0.40,-10.20,0.00,-0.01,-0.01,-30.05,-19.22,43.991287.00,-0.06,-0.40,-10.20,0.00,-0.01,-0.01,-30.05,-19.22,43.991290.00,-0.06,-0.40,-10.20,0.00,-0.01,-0.01,-30.05,-19.22,43.991294.00,-0.06,-0.40,-10.20,0.00,-0.01,-0.01,-30.05,-19.22,43.991297.00,-0.06,-0.40,-10.20,0.00,-0.01,-0.01,-30.05,-19.22,43.991300.00,-0.06,-0.40,-10.20,0.00,-0.01,-0.01,-30.05,-19.22,43.991304.00,-0.07,-0.40,-10.17,0.00,-0.01,-0.01,-30.05,-19.22,43.991308.00,-0.07,-0.40,-10.17,0.00,-0.01,-0.01,-30.05,-19.22,43.991311.00,-0.07,-0.40,-10.17,0.00,-0.01,-0.01,-30.05,-19.22,43.991314.00,-0.07,-0.40,-10.17,0.00,-0.01,-0.01,-30.05,-19.22,43.991318.00,-0.07,-0.40,-10.17,0.00,-0.01,-0.01,-30.05,-19.22,43.991321.00,-0.07,-0.39,-10.20,0.00,-0.01,-0.01,-30.05,-19.22,43.991325.00,-0.07,-0.39,-10.20,0.00,-0.01,-0.01,-30.05,-19.22,43.991328.00,-0.07,-0.39,-10.20,0.00,-0.01,-0.01,-30.05,-19.22,43.991332.00,-0.07,-0.39,-10.20,0.00,-0.01,-0.01,-30.05,-19.22,43.991335.00,-0.07,-0.39,-10.20,0.00,-0.01,-0.01,-30.05,-19.22,43.991338.00,-0.07,-0.39,-10.20,0.00,-0.01,-0.01,-30.05,-19.22,43.991342.00,-0.06,-0.40,-10.19,-0.00,-0.01,-0.01,-30.05,-19.22,43.991346.00,-0.06,-0.40,-10.19,-0.00,-0.01,-0.01,-30.05,-19.22,43.991349.00,-0.06,-0.40,-10.19,-0.00,-0.01,-0.01,-30.05,-19.22,43.991352.00,-0.06,-0.40,-10.19,-0.00,-0.01,-0.01,-30.05,-19.22,43.991356.00,-0.06,-0.40,-10.19,-0.00,-0.01,-0.01,-30.05,-19.22,43.991359.00,-0.06,-0.40,-10.19,-0.00,-0.01,-0.01,-30.05,-19.22,43.991363.00,-0.07,-0.41,-10.19,-0.00,-0.01,-0.01,-30.05,-19.22,43.991366.00,-0.07,-0.41,-10.19,-0.00,-0.01,-0.01,-30.05,-19.22,43.991370.00,-0.07,-0.41,-10.19,-0.00,-0.01,-0.01,-30.05,-19.22,43.991373.00,-0.07,-0.41,-10.19,-0.00,-0.01,-0.01,-30.05,-19.22,43.991377.00,-0.07,-0.41,-10.19,-0.00,-0.01,-0.01,-30.05,-19.22,43.991380.00,-0.07,-0.41,-10.19,-0.00,-0.01,-0.01,-30.05,-19.22,43.991384.00,-0.07,-0.41,-10.16,0.00,-0.01,-0.01,-30.05,-19.22,43.991387.00,-0.07,-0.41,-10.16,0.00,-0.01,-0.01,-30.05,-19.22,43.991391.00,-0.07,-0.41,-10.16,0.00,-0.01,-0.01,-30.05,-19.22,43.991394.00,-0.07,-0.41,-10.16,0.00,-0.01,-0.01,-30.05,-19.22,43.991398.00,-0.07,-0.41,-10.16,0.00,-0.01,-0.01,-30.05,-19.22,43.991401.00,-0.07,-0.41,-10.16,0.00,-0.01,-0.01,-30.05,-19.22,43.991404.00,-0.07,-0.40,-10.21,0.00,-0.01,-0.01,-28.46,-21.51,45.181408.00,-0.07,-0.40,-10.21,0.00,-0.01,-0.01,-28.46,-21.51,45.181411.00,-0.07,-0.40,-10.21,0.00,-0.01,-0.01,-28.46,-21.51,45.181415.00,-0.07,-0.40,-10.21,0.00,-0.01,-0.01,-28.46,-21.51,45.181418.00,-0.07,-0.40,-10.21,0.00,-0.01,-0.01,-28.46,-21.51,45.181422.00,-0.07,-0.39,-10.17,0.00,-0.01,-0.01,-28.46,-21.51,45.181425.00,-0.07,-0.39,-10.17,0.00,-0.01,-0.01,-28.46,-21.51,45.181429.00,-0.07,-0.39,-10.17,0.00,-0.01,-0.01,-28.46,-21.51,45.181432.00,-0.07,-0.39,-10.17,0.00,-0.01,-0.01,-28.46,-21.51,45.181436.00,-0.07,-0.39,-10.17,0.00,-0.01,-0.01,-28.46,-21.51,45.181439.00,-0.07,-0.39,-10.17,0.00,-0.01,-0.01,-28.46,-21.51,45.181442.00,-0.06,-0.41,-10.19,0.00,-0.01,-0.01,-28.46,-21.51,45.181446.00,-0.06,-0.41,-10.19,0.00,-0.01,-0.01,-28.46,-21.51,45.181449.00,-0.06,-0.41,-10.19,0.00,-0.01,-0.01,-28.46,-21.51,45.181453.00,-0.06,-0.41,-10.19,0.00,-0.01,-0.01,-28.46,-21.51,45.181456.00,-0.06,-0.41,-10.19,0.00,-0.01,-0.01,-28.46,-21.51,45.181460.00,-0.06,-0.41,-10.19,0.00,-0.01,-0.01,-28.46,-21.51,45.181463.00,-0.06,-0.40,-10.19,0.00,-0.01,-0.01,-28.46,-21.51,45.181467.00,-0.06,-0.40,-10.19,0.00,-0.01,-0.01,-28.46,-21.51,45.181470.00,-0.06,-0.40,-10.19,0.00,-0.01,-0.01,-28.46,-21.51,45.181474.00,-0.06,-0.40,-10.19,0.00,-0.01,-0.01,-28.46,-21.51,45.181477.00,-0.06,-0.40,-10.19,0.00,-0.01,-0.01,-28.46,-21.51,45.181481.00,-0.06,-0.40,-10.19,0.00,-0.01,-0.01,-28.46,-21.51,45.181484.00,-0.09,-0.40,-10.16,0.00,-0.01,-0.01,-28.46,-21.51,45.181488.00,-0.09,-0.40,-10.16,0.00,-0.01,-0.01,-28.46,-21.51,45.181491.00,-0.09,-0.40,-10.16,0.00,-0.01,-0.01,-28.46,-21.51,45.181495.00,-0.09,-0.40,-10.16,0.00,-0.01,-0.01,-28.46,-21.51,45.181498.00,-0.09,-0.40,-10.16,0.00,-0.01,-0.01,-28.46,-21.51,45.181501.00,-0.08,-0.39,-10.13,0.00,-0.01,-0.01,-28.46,-21.51,45.181505.00,-0.08,-0.39,-10.13,0.00,-0.01,-0.01,-28.46,-21.51,45.181509.00,-0.08,-0.39,-10.13,0.00,-0.01,-0.01,-28.46,-21.51,45.181512.00,-0.08,-0.39,-10.13,0.00,-0.01,-0.01,-28.46,-21.51,45.181516.00,-0.08,-0.39,-10.13,0.00,-0.01,-0.01,-28.46,-21.51,45.181519.00,-0.08,-0.39,-10.13,0.00,-0.01,-0.01,-28.46,-21.51,45.181522.00,-0.09,-0.40,-10.22,0.00,-0.01,-0.01,-26.53,-19.22,44.671526.00,-0.09,-0.40,-10.22,0.00,-0.01,-0.01,-26.53,-19.22,44.671529.00,-0.09,-0.40,-10.22,0.00,-0.01,-0.01,-26.53,-19.22,44.671533.00,-0.09,-0.40,-10.22,0.00,-0.01,-0.01,-26.53,-19.22,44.671536.00,-0.09,-0.40,-10.22,0.00,-0.01,-0.01,-26.53,-19.22,44.671540.00,-0.09,-0.40,-10.22,0.00,-0.01,-0.01,-26.53,-19.22,44.671543.00,-0.06,-0.41,-10.17,0.00,-0.01,-0.01,-26.53,-19.22,44.671547.00,-0.06,-0.41,-10.17,0.00,-0.01,-0.01,-26.53,-19.22,44.671550.00,-0.06,-0.41,-10.17,0.00,-0.01,-0.01,-26.53,-19.22,44.671554.00,-0.06,-0.41,-10.17,0.00,-0.01,-0.01,-26.53,-19.22,44.671558.00,-0.06,-0.41,-10.17,0.00,-0.01,-0.01,-26.53,-19.22,44.671561.00,-0.06,-0.41,-10.17,0.00,-0.01,-0.01,-26.53,-19.22,44.671565.00,-0.07,-0.39,-10.20,0.00,-0.01,-0.01,-26.53,-19.22,44.671568.00,-0.07,-0.39,-10.20,0.00,-0.01,-0.01,-26.53,-19.22,44.671572.00,-0.07,-0.39,-10.20,0.00,-0.01,-0.01,-26.53,-19.22,44.671575.00,-0.07,-0.39,-10.20,0.00,-0.01,-0.01,-26.53,-19.22,44.671579.00,-0.07,-0.39,-10.20,0.00,-0.01,-0.01,-26.53,-19.22,44.671582.00,-0.08,-0.40,-10.24,0.00,-0.01,-0.01,-26.53,-19.22,44.671586.00,-0.08,-0.40,-10.24,0.00,-0.01,-0.01,-26.53,-19.22,44.671589.00,-0.08,-0.40,-10.24,0.00,-0.01,-0.01,-26.53,-19.22,44.671593.00,-0.08,-0.40,-10.24,0.00,-0.01,-0.01,-26.53,-19.22,44.671596.00,-0.08,-0.40,-10.24,0.00,-0.01,-0.01,-26.53,-19.22,44.671601.00,-0.08,-0.40,-10.24,0.00,-0.01,-0.01,-26.53,-19.22,44.671650.00,-0.10,-0.39,-10.22,0.00,-0.01,-0.01,-29.69,-19.92,43.991700.00,-0.07,-0.40,-10.20,-0.00,-0.01,-0.01,-29.69,-19.92,43.991750.00,-0.08,-0.40,-10.17,0.00,-0.01,-0.01,-29.69,-19.92,43.991800.00,-0.07,-0.39,-10.19,0.00,-0.01,-0.01,-28.82,-20.80,44.841849.00,-0.07,-0.40,-10.19,-0.00,-0.01,-0.01,-28.82,-20.80,44.841899.00,-0.05,-0.39,-10.19,0.00,-0.01,-0.01,-28.82,-20.80,44.841949.00,-0.09,-0.39,-10.19,0.00,-0.01,-0.01,-29.34,-19.92,46.031999.00,-0.07,-0.40,-10.18,0.00,-0.01,-0.01,-29.34,-19.92,46.032049.00,-0.08,-0.39,-10.19,0.00,-0.01,-0.01,-28.46,-20.45,45.182098.00,-0.07,-0.41,-10.18,0.00,-0.01,-0.01,-28.46,-20.45,45.182148.00,-0.04,-0.39,-10.22,0.00,-0.01,-0.01,-28.29,-18.51,44.672198.00,-0.07,-0.39,-10.19,0.00,-0.01,-0.01,-28.29,-18.51,44.672248.00,-0.06,-0.39,-10.20,0.00,-0.01,-0.01,-28.29,-18.51,44.672298.00,-0.08,-0.40,-10.21,0.00,-0.01,-0.01,-28.29,-18.51,44.672348.00,-0.09,-0.40,-10.18,0.00,-0.01,-0.01,-28.29,-18.51,44.672398.00,-0.09,-0.40,-10.18,0.00,-0.01,-0.01,-28.29,-18.51,44.672448.00,-0.07,-0.41,-10.19,0.00,-0.01,-0.01,-30.22,-19.39,46.202498.00,-0.06,-0.40,-10.19,0.00,-0.01,-0.01,-30.22,-19.39,46.202548.00,-0.07,-0.40,-10.19,0.00,-0.01,-0.01,-26.88,-19.92,45.692598.00,-0.08,-0.40,-10.18,0.00,-0.01,-0.01,-26.88,-19.92,45.692648.00,-0.07,-0.40,-10.18,-0.00,-0.01,-0.01,-29.17,-21.16,44.842698.00,-0.07,-0.39,-10.18,0.00,-0.01,-0.01,-29.17,-21.16,44.842748.00,-0.07,-0.41,-10.19,0.00,-0.01,-0.01,-29.17,-21.16,44.842797.00,-0.06,-0.40,-10.19,0.00,-0.01,-0.01,-28.46,-20.10,45.182847.00,-0.07,-0.40,-10.17,-0.00,-0.01,-0.01,-28.46,-20.10,45.182897.00,-0.07,-0.39,-10.18,0.00,-0.01,-0.01,-28.46,-20.10,45.182947.00,-0.09,-0.40,-10.19,0.00,-0.01,-0.01,-29.34,-19.57,45.692997.00,-0.07,-0.39,-10.16,-0.00,-0.01,-0.01,-29.34,-19.57,45.693047.00,-0.09,-0.40,-10.17,0.00,-0.01,-0.01,-27.94,-20.27,43.993097.00,-0.07,-0.40,-10.18,-0.00,-0.01,-0.01,-27.94,-20.27,43.993147.00,-0.08,-0.38,-10.20,0.00,-0.01,-0.01,-28.64,-20.63,46.033197.00,-0.05,-0.40,-10.16,-0.00,-0.01,-0.01,-28.64,-20.63,46.033246.00,-0.06,-0.40,-10.19,0.00,-0.01,-0.01,-28.64,-20.63,46.033296.00,-0.07,-0.40,-10.22,0.00,-0.01,-0.01,-28.46,-20.10,44.843346.00,-0.06,-0.39,-10.19,0.00,-0.01,-0.01,-28.46,-20.10,44.843396.00,-0.06,-0.40,-10.19,0.00,-0.01,-0.01,-28.46,-20.10,44.843446.00,-0.07,-0.41,-10.18,-0.00,-0.01,-0.01,-28.11,-19.04,45.183497.00,-0.08,-0.40,-10.19,0.00,-0.01,-0.01,-28.11,-19.04,45.183546.00,-0.06,-0.40,-10.21,0.00,-0.01,-0.01,-28.82,-19.39,44.843596.00,-0.07,-0.40,-10.21,0.00,-0.01,-0.01,-28.82,-19.39,44.843646.00,-0.07,-0.39,-10.20,-0.00,-0.01,-0.01,-27.06,-20.80,46.883696.00,-0.07,-0.41,-10.18,-0.00,-0.01,-0.01,-27.06,-20.80,46.883747.00,-0.06,-0.40,-10.15,0.00,-0.01,-0.01,-27.06,-20.80,46.883796.00,-0.07,-0.40,-10.20,0.00,-0.01,-0.01,-27.41,-20.80,46.203846.00,-0.06,-0.39,-10.18,0.00,-0.01,-0.01,-27.41,-20.80,46.203896.00,-0.07,-0.40,-10.18,0.00,-0.01,-0.01,-27.41,-20.80,46.203946.00,-0.08,-0.39,-10.20,0.00,-0.01,-0.01,-28.46,-21.16,46.883996.00,-0.06,-0.40,-10.21,0.00,-0.01,-0.01,-28.46,-21.16,46.884047.00,-0.09,-0.41,-10.19,0.00,-0.01,-0.01,-29.87,-20.10,45.184097.00,-0.08,-0.38,-10.14,-0.00,-0.01,-0.01,-29.87,-20.10,45.184147.00,-0.06,-0.40,-10.18,0.00,-0.01,-0.01,-29.69,-19.57,46.374197.00,-0.07,-0.39,-10.18,0.00,-0.01,-0.01,-29.69,-19.57,46.374247.00,-0.10,-0.38,-10.16,-0.00,-0.01,-0.01,-29.69,-19.57,46.374297.00,-0.06,-0.38,-10.22,-0.00,-0.01,-0.01,-28.64,-19.92,46.374347.00,-0.08,-0.39,-10.22,0.00,-0.01,-0.01,-28.64,-19.92,46.374396.00,-0.08,-0.41,-10.17,0.00,-0.01,-0.01,-28.64,-19.92,46.374447.00,-0.05,-0.38,-10.17,0.00,-0.01,-0.01,-27.94,-20.98,46.374497.00,-0.08,-0.41,-10.17,0.00,-0.01,-0.01,-27.94,-20.98,46.374547.00,-0.08,-0.40,-10.21,0.00,-0.01,-0.01,-28.82,-20.10,45.864597.00,-0.08,-0.40,-10.19,0.00,-0.01,-0.01,-28.82,-20.10,45.864647.00,-0.09,-0.41,-10.20,0.00,-0.01,-0.01,-28.82,-20.10,45.864697.00,-0.09,-0.39,-10.19,-0.00,-0.01,-0.01,-29.17,-20.45,45.524747.00,-0.09,-0.40,-10.18,0.00,-0.01,-0.01,-29.17,-20.45,45.524797.00,-0.08,-0.43,-10.19,0.00,-0.01,-0.01,-28.99,-19.57,46.034847.00,-0.07,-0.38,-10.19,0.00,-0.01,-0.01,-28.99,-19.57,46.034897.00,-0.07,-0.41,-10.20,0.00,-0.01,-0.01,-28.99,-19.57,46.034947.00,-0.08,-0.39,-10.18,0.00,-0.01,-0.01,-27.59,-19.57,45.694997.00,-0.05,-0.36,-10.21,0.00,-0.01,-0.01,-27.59,-19.57,45.695047.00,-0.06,-0.38,-10.17,0.00,-0.01,-0.01,-29.87,-19.39,46.205097.00,-0.08,-0.38,-10.19,-0.00,-0.01,-0.01,-29.87,-19.39,46.205147.00,-0.05,-0.41,-10.19,-0.00,-0.01,-0.01,-29.87,-19.39,46.205197.00,-0.07,-0.38,-10.19,0.00,-0.01,-0.01,-27.94,-20.63,45.695247.00,-0.07,-0.47,-10.18,0.00,-0.01,-0.01,-27.94,-20.63,45.695297.00,-0.06,-0.37,-10.20,0.00,-0.01,-0.01,-29.34,-20.27,47.055347.00,-0.07,-0.42,-10.18,0.00,-0.01,-0.01,-29.34,-20.27,47.055397.00,-0.06,-0.41,-10.19,0.00,-0.01,-0.01,-29.34,-20.27,47.055447.00,-0.07,-0.39,-10.20,-0.00,-0.01,-0.01,-29.52,-21.86,47.225497.00,-0.07,-0.44,-10.19,0.00,-0.01,-0.01,-29.52,-21.86,47.225547.00,-0.05,-0.36,-10.21,0.00,-0.01,-0.01,-27.94,-20.27,45.355597.00,-0.08,-0.43,-10.20,0.00,-0.01,-0.01,-27.94,-20.27,45.355647.00,-0.06,-0.40,-10.16,-0.00,-0.01,-0.01,-27.94,-20.27,45.355697.00,-0.10,-0.39,-10.21,0.00,-0.01,-0.01,-30.57,-19.04,45.865747.00,-0.06,-0.41,-10.17,0.00,-0.01,-0.01,-30.57,-19.04,45.865798.00,-0.07,-0.39,-10.21,0.00,-0.01,-0.01,-28.82,-17.63,44.845848.00,-0.08,-0.40,-10.17,0.00,-0.01,-0.01,-28.82,-17.63,44.845898.00,-0.06,-0.40,-10.18,0.00,-0.01,-0.01,-28.82,-17.63,44.845948.00,-0.08,-0.39,-10.19,0.00,-0.01,-0.01,-28.46,-19.39,45.865998.00,-0.06,-0.41,-10.22,0.00,-0.01,-0.01,-28.46,-19.39,45.866048.00,-0.07,-0.41,-10.21,0.00,-0.01,-0.01,-29.69,-20.63,45.696098.00,-0.06,-0.37,-10.18,-0.00,-0.01,-0.01,-29.69,-20.63,45.696148.00,-0.07,-0.38,-10.20,-0.00,-0.01,-0.01,-29.69,-20.63,45.696198.00,-0.05,-0.39,-10.15,0.00,-0.01,-0.01,-28.99,-19.92,46.376248.00,-0.05,-0.39,-10.18,0.00,-0.01,-0.01,-28.99,-19.92,46.376299.00,-0.09,-0.41,-10.19,0.00,-0.01,-0.01,-28.82,-20.10,46.206349.00,-0.09,-0.40,-10.19,0.00,-0.01,-0.01,-28.82,-20.10,46.206399.00,-0.04,-0.38,-10.20,0.00,-0.01,-0.01,-28.82,-20.10,46.206449.00,-0.10,-0.43,-10.18,0.00,-0.01,-0.01,-28.99,-19.92,46.036499.00,-0.04,-0.38,-10.20,0.00,-0.01,-0.01,-28.99,-19.92,46.036549.00,-0.09,-0.42,-10.19,0.00,-0.01,-0.01,-29.52,-19.75,45.526599.00,-0.04,-0.41,-10.19,-0.00,-0.01,-0.01,-29.52,-19.75,45.526649.00,-0.08,-0.39,-10.19,0.00,-0.01,-0.01,-29.52,-19.75,45.526700.00,-0.06,-0.40,-10.21,0.00,-0.01,-0.01,-27.59,-19.22,45.696750.00,-0.07,-0.39,-10.19,-0.00,-0.01,-0.01,-27.59,-19.22,45.696800.00,-0.07,-0.40,-10.21,0.00,-0.01,-0.01,-28.99,-19.92,45.356850.00,-0.07,-0.38,-10.17,0.00,-0.01,-0.01,-28.99,-19.92,45.356900.00,-0.08,-0.40,-10.18,0.00,-0.01,-0.01,-28.99,-19.92,45.356950.00,-0.07,-0.38,-10.19,0.00,-0.01,-0.01,-27.76,-18.69,45.527001.00,-0.07,-0.38,-10.21,0.00,-0.01,-0.01,-27.76,-18.69,45.527051.00,-0.07,-0.39,-10.17,0.00,-0.01,-0.01,-28.29,-20.63,46.377101.00,-0.09,-0.39,-10.17,0.00,-0.01,-0.01,-28.29,-20.63,46.377151.00,-0.07,-0.40,-10.18,0.00,-0.01,-0.01,-28.29,-20.63,46.377201.00,-0.07,-0.41,-10.20,0.00,-0.01,-0.01,-28.82,-20.10,46.547252.00,-0.07,-0.40,-10.18,0.00,-0.01,-0.01,-28.82,-20.10,46.547302.00,-0.08,-0.40,-10.20,0.00,-0.01,-0.01,-28.82,-17.28,45.527352.00,-0.06,-0.39,-10.21,0.00,-0.01,-0.01,-28.82,-17.28,45.527402.00,-0.08,-0.37,-10.20,0.00,-0.01,-0.01,-28.82,-17.28,45.527452.00,-0.06,-0.40,-10.20,0.00,-0.01,-0.01,-28.99,-19.92,45.357503.00,-0.06,-0.40,-10.20,0.00,-0.01,-0.01,-28.99,-19.92,45.357553.00,-0.08,-0.42,-10.22,0.00,-0.01,-0.01,-28.82,-20.45,45.527603.00,-0.08,-0.40,-10.17,0.00,-0.01,-0.01,-28.82,-20.45,45.527653.00,-0.06,-0.40,-10.18,0.00,-0.01,-0.01,-28.82,-20.45,45.527704.00,-0.08,-0.40,-10.18,0.00,-0.01,-0.01,-28.64,-19.92,47.397754.00,-0.08,-0.47,-10.18,0.00,-0.01,-0.01,-28.64,-19.92,47.397804.00,-0.06,-0.38,-10.20,0.00,-0.01,-0.01,-29.17,-20.45,46.207854.00,-0.08,-0.38,-10.18,0.00,-0.01,-0.01,-29.17,-20.45,46.207905.00,-0.04,-0.39,-10.17,-0.00,-0.01,-0.01,-29.17,-20.45,46.207955.00,-0.07,-0.38,-10.21,0.00,-0.01,-0.01,-29.17,-20.10,46.208005.00,-0.07,-0.40,-10.21,0.00,-0.01,-0.01,-29.17,-20.10,46.208055.00,-0.06,-0.39,-10.19,0.00,-0.01,-0.01,-28.11,-20.10,45.528106.00,-0.08,-0.40,-10.19,0.00,-0.01,-0.01,-28.11,-20.10,45.528156.00,-0.05,-0.40,-10.18,-0.00,-0.01,-0.01,-28.11,-20.10,45.528206.00,-0.09,-0.38,-10.20,-0.00,-0.01,-0.01,-28.99,-19.22,45.358256.00,-0.05,-0.41,-10.17,0.00,-0.01,-0.01,-28.99,-19.22,45.358307.00,-0.08,-0.41,-10.21,0.00,-0.01,-0.01,-28.64,-19.57,44.678357.00,-0.08,-0.40,-10.19,0.00,-0.01,-0.01,-28.64,-19.57,44.678408.00,-0.07,-0.41,-10.20,0.00,-0.01,-0.01,-28.64,-19.57,44.678458.00,-0.08,-0.40,-10.19,0.00,-0.01,-0.01,-28.29,-19.22,45.698508.00,-0.06,-0.39,-10.20,0.00,-0.01,-0.01,-28.29,-19.22,45.698558.00,-0.06,-0.40,-10.20,0.00,-0.01,-0.01,-30.22,-18.69,45.868609.00,-0.06,-0.40,-10.19,0.00,-0.01,-0.01,-30.22,-18.69,45.868659.00,-0.08,-0.40,-10.20,0.00,-0.01,-0.01,-30.22,-18.69,45.868709.00,-0.07,-0.39,-10.20,-0.00,-0.01,-0.01,-29.52,-19.75,46.888759.00,-0.07,-0.42,-10.18,0.00,-0.01,-0.01,-29.52,-19.75,46.888810.00,-0.07,-0.38,-10.21,0.00,-0.01,-0.01,-28.82,-20.10,45.868860.00,-0.06,-0.39,-10.18,0.00,-0.01,-0.01,-28.82,-20.10,45.868910.00,-0.08,-0.40,-10.19,0.00,-0.01,-0.01,-28.82,-20.10,45.868961.00,-0.07,-0.39,-10.20,0.00,-0.01,-0.01,-28.82,-20.10,45.869011.00,-0.07,-0.42,-10.20,0.00,-0.01,-0.01,-28.82,-20.10,45.869061.00,-0.06,-0.40,-10.20,0.00,-0.01,-0.01,-28.64,-19.92,46.719111.00,-0.07,-0.39,-10.19,0.00,-0.01,-0.01,-28.64,-19.92,46.719162.00,-0.07,-0.41,-10.18,0.00,-0.01,-0.01,-28.64,-19.92,46.719212.00,-0.06,-0.38,-10.21,0.00,-0.01,-0.01,-29.34,-19.57,46.379262.00,-0.07,-0.41,-10.17,0.00,-0.01,-0.01,-29.34,-19.57,46.379313.00,-0.08,-0.41,-10.22,0.00,-0.01,-0.01,-27.94,-19.22,45.019363.00,-0.05,-0.40,-10.18,0.00,-0.01,-0.01,-27.94,-19.22,45.019413.00,-0.08,-0.39,-10.16,0.00,-0.01,-0.01,-27.94,-19.22,45.019463.00,-0.06,-0.40,-10.18,-0.00,-0.01,-0.01,-28.11,-20.10,46.549514.00,-0.07,-0.40,-10.16,0.00,-0.01,-0.01,-28.11,-20.10,46.549564.00,-0.07,-0.40,-10.19,0.00,-0.01,-0.01,-29.17,-19.39,45.529614.00,-0.06,-0.40,-10.19,0.00,-0.01,-0.01,-29.17,-19.39,45.529665.00,-0.07,-0.42,-10.18,-0.00,-0.01,-0.01,-29.17,-19.39,45.529715.00,-0.08,-0.40,-10.19,0.00,-0.01,-0.01,-27.76,-21.16,46.549765.00,-0.07,-0.41,-10.19,-0.00,-0.01,-0.01,-27.76,-21.16,46.549816.00,-0.08,-0.40,-10.21,0.00,-0.01,-0.01,-27.94,-19.57,47.059866.00,-0.07,-0.38,-10.18,0.00,-0.01,-0.01,-27.94,-19.57,47.059916.00,-0.09,-0.41,-10.17,0.00,-0.01,-0.01,-27.94,-19.57,47.059967.00,-0.06,-0.39,-10.18,0.00,-0.01,-0.01,-28.64,-18.86,46.7110017.00,-0.07,-0.40,-10.17,0.00,-0.01,-0.01,-28.64,-18.86,46.7110068.00,-0.07,-0.40,-10.19,0.00,-0.01,-0.01,-28.82,-20.45,46.2010118.00,-0.07,-0.40,-10.20,0.00,-0.01,-0.01,-28.82,-20.45,46.2010168.00,-0.06,-0.39,-10.20,0.00,-0.01,-0.01,-28.82,-20.45,46.2010219.00,-0.07,-0.39,-10.20,0.00,-0.01,-0.01,-28.46,-19.75,45.1810269.00,-0.07,-0.40,-10.18,0.00,-0.01,-0.01,-28.46,-19.75,45.1810320.00,-0.06,-0.40,-10.22,0.00,-0.01,-0.01,-29.34,-19.92,45.3510370.00,-0.07,-0.40,-10.20,0.00,-0.01,-0.01,-29.34,-19.92,45.3510420.00,-0.07,-0.40,-10.18,0.00,-0.01,-0.01,-29.34,-19.92,45.3510471.00,-0.07,-0.40,-10.19,0.00,-0.01,-0.01,-28.99,-19.22,46.0310521.00,-0.07,-0.40,-10.19,0.00,-0.01,-0.01,-28.99,-19.22,46.0310572.00,-0.07,-0.40,-10.19,0.00,-0.01,-0.01,-28.29,-19.92,46.3710622.00,-0.08,-0.38,-10.16,0.00,-0.01,-0.01,-28.29,-19.92,46.3710673.00,-0.09,-0.42,-10.20,0.00,-0.01,-0.01,-28.99,-18.51,44.6710723.00,-0.06,-0.40,-10.18,0.00,-0.01,-0.01,-28.99,-18.51,44.6710773.00,-0.08,-0.41,-10.20,0.00,-0.01,-0.01,-28.99,-18.51,44.6710824.00,-0.05,-0.39,-10.19,0.00,-0.01,-0.01,-28.29,-20.98,46.0310874.00,-0.08,-0.40,-10.20,0.00,-0.01,-0.01,-28.29,-20.98,46.0310925.00,-0.06,-0.39,-10.20,0.00,-0.01,-0.01,-28.29,-20.98,46.0310975.00,-0.06,-0.39,-10.21,0.00,-0.01,-0.01,-27.76,-19.04,46.2011026.00,-0.09,-0.43,-10.20,0.00,-0.01,-0.01,-27.76,-19.04,46.2011076.00,-0.08,-0.37,-10.19,0.00,-0.01,-0.01,-28.11,-21.16,45.5211126.00,-0.10,-0.39,-10.21,0.00,-0.01,-0.01,-28.11,-21.16,45.5211177.00,-0.06,-0.40,-10.21,0.00,-0.01,-0.01,-28.64,-20.63,46.3711227.00,-0.07,-0.40,-10.18,0.00,-0.01,-0.01,-28.64,-20.63,46.3711278.00,-0.07,-0.41,-10.18,0.00,-0.01,-0.01,-28.64,-20.63,46.3711328.00,-0.08,-0.40,-10.21,0.00,-0.01,-0.01,-28.99,-19.92,45.6911379.00,-0.06,-0.40,-10.18,0.00,-0.01,-0.01,-28.99,-19.92,45.6911429.00,-0.08,-0.42,-10.18,0.00,-0.01,-0.01,-28.99,-19.92,45.6911479.00,-0.09,-0.38,-10.19,-0.00,-0.01,-0.01,-28.64,-20.98,46.7111530.00,-0.07,-0.39,-10.17,0.00,-0.01,-0.01,-28.64,-20.98,46.7111581.00,-0.09,-0.40,-10.18,0.00,-0.01,-0.01,-28.99,-19.92,44.6711631.00,-0.06,-0.37,-10.22,-0.00,-0.01,-0.01,-28.99,-19.92,44.6711681.00,-0.07,-0.42,-10.18,0.00,-0.01,-0.01,-29.34,-19.57,46.0311732.00,-0.08,-0.37,-10.20,-0.00,-0.01,-0.01,-29.34,-19.57,46.0311782.00,-0.08,-0.39,-10.19,0.00,-0.01,-0.01,-29.34,-19.57,46.0311833.00,-0.08,-0.40,-10.19,-0.00,-0.01,-0.01,-28.82,-20.10,46.8811883.00,-0.06,-0.39,-10.19,-0.00,-0.01,-0.01,-28.82,-20.10,46.8811934.00,-0.07,-0.41,-10.18,0.00,-0.01,-0.01,-28.82,-19.39,46.8811984.00,-0.08,-0.38,-10.19,0.00,-0.01,-0.01,-28.82,-19.39,46.8812035.00,-0.06,-0.39,-10.17,0.00,-0.01,-0.01,-28.82,-19.39,46.8812085.00,-0.07,-0.42,-10.20,0.00,-0.01,-0.01,-28.46,-18.69,44.1612135.00,-0.06,-0.39,-10.17,0.00,-0.01,-0.01,-28.46,-18.69,44.1612186.00,-0.09,-0.41,-10.18,0.00,-0.01,-0.01,-28.82,-20.45,45.5212236.00,-0.06,-0.38,-10.18,0.00,-0.01,-0.01,-28.82,-20.45,45.5212287.00,-0.07,-0.40,-10.20,0.00,-0.01,-0.01,-28.82,-20.45,45.5212337.00,-0.09,-0.41,-10.19,0.00,-0.01,-0.01,-28.99,-20.63,46.3712388.00,-0.07,-0.38,-10.18,-0.00,-0.01,-0.01,-28.99,-20.63,46.3712438.00,-0.08,-0.41,-10.18,0.00,-0.01,-0.01,-30.92,-19.04,44.8412489.00,-0.07,-0.39,-10.17,0.00,-0.01,-0.01,-30.92,-19.04,44.8412539.00,-0.07,-0.40,-10.18,0.00,-0.01,-0.01,-30.92,-19.04,44.8412590.00,-0.07,-0.41,-10.18,0.00,-0.01,-0.01,-29.17,-19.39,45.1812640.00,-0.07,-0.40,-10.19,0.00,-0.01,-0.01,-29.17,-19.39,45.1812691.00,-0.08,-0.41,-10.20,-0.00,-0.01,-0.01,-28.46,-22.57,46.8812741.00,-0.05,-0.40,-10.20,0.00,-0.01,-0.01,-28.46,-22.57,46.8812792.00,-0.08,-0.36,-10.17,0.00,-0.01,-0.01,-28.46,-22.57,46.8812842.00,-0.03,-0.40,-10.21,-0.00,-0.01,-0.01,-28.64,-21.68,46.7112893.00,-0.08,-0.40,-10.20,0.00,-0.01,-0.01,-28.64,-21.68,46.7112943.00,-0.08,-0.47,-10.20,0.00,-0.01,-0.01,-28.99,-18.86,45.6912994.00,-0.07,-0.34,-10.19,0.00,-0.01,-0.01,-28.99,-18.86,45.6913044.00,-0.08,-0.40,-10.18,0.00,-0.01,-0.01,-28.99,-18.86,45.6913095.00,-0.08,-0.40,-10.20,0.00,-0.01,-0.01,-28.82,-20.45,46.5413145.00,-0.06,-0.36,-10.20,-0.00,-0.01,-0.01,-28.82,-20.45,46.5413196.00,-0.06,-0.41,-10.20,0.00,-0.01,-0.01,-28.82,-20.45,47.9013246.00,-0.07,-0.39,-10.20,0.00,-0.01,-0.01,-28.82,-20.45,47.9013297.00,-0.06,-0.43,-10.18,0.00,-0.01,-0.01,-28.82,-20.45,47.9013347.00,-0.07,-0.36,-10.19,0.00,-0.01,-0.01,-30.22,-18.69,45.1813398.00,-0.05,-0.42,-10.20,0.00,-0.01,-0.01,-30.22,-18.69,45.1813448.00,-0.08,-0.40,-10.20,0.00,-0.01,-0.01,-27.94,-19.92,45.0113499.00,-0.06,-0.38,-10.18,0.00,-0.01,-0.01,-27.94,-19.92,45.0113550.00,-0.07,-0.38,-10.19,0.00,-0.01,-0.01,-27.94,-19.92,45.0113600.00,-0.07,-0.40,-10.20,0.00,-0.01,-0.01,-29.17,-20.45,45.1813651.00,-0.08,-0.41,-10.19,0.00,-0.01,-0.01,-29.17,-20.45,45.1813701.00,-0.08,-0.40,-10.22,0.00,-0.01,-0.01,-29.34,-18.86,45.0113752.00,-0.08,-0.40,-10.20,0.00,-0.01,-0.01,-29.34,-18.86,45.0113803.00,-0.08,-0.38,-10.20,0.00,-0.01,-0.01,-29.34,-18.86,45.0113853.00,-0.06,-0.41,-10.21,0.00,-0.01,-0.01,-28.64,-19.22,45.6913904.00,-0.07,-0.40,-10.18,0.00,-0.01,-0.01,-28.64,-19.22,45.6913954.00,-0.07,-0.39,-10.17,0.00,-0.01,-0.01,-28.29,-19.22,46.3714005.00,-0.05,-0.39,-10.20,0.00,-0.01,-0.01,-28.29,-19.22,46.3714056.00,-0.09,-0.42,-10.19,0.00,-0.01,-0.01,-28.99,-19.22,45.3514106.00,-0.05,-0.38,-10.20,0.00,-0.01,-0.01,-28.99,-19.22,45.3514157.00,-0.07,-0.40,-10.17,-0.00,-0.01,-0.01,-28.99,-19.22,45.3514207.00,-0.06,-0.41,-10.20,0.00,-0.01,-0.01,-27.94,-18.51,46.0314258.00,-0.05,-0.38,-10.19,0.00,-0.01,-0.01,-27.94,-18.51,46.0314309.00,-0.08,-0.41,-10.18,0.00,-0.01,-0.01,-27.94,-18.51,46.0314359.00,-0.06,-0.40,-10.24,0.00,-0.01,-0.01,-28.99,-19.22,43.9914410.00,-0.06,-0.40,-10.16,0.00,-0.01,-0.01,-28.99,-19.22,43.9914461.00,-0.07,-0.38,-10.21,-0.00,-0.01,-0.01,-28.46,-21.16,46.2014511.00,-0.08,-0.42,-10.18,0.00,-0.01,-0.01,-28.46,-21.16,46.2014562.00,-0.08,-0.39,-10.20,0.00,-0.01,-0.01,-28.82,-19.75,46.2014612.00,-0.06,-0.39,-10.19,0.00,-0.01,-0.01,-28.82,-19.75,46.2014663.00,-0.07,-0.39,-10.19,0.00,-0.01,-0.01,-28.82,-19.75,46.2014714.00,-0.08,-0.39,-10.22,0.00,-0.01,-0.01,-26.71,-20.80,46.5414764.00,-0.08,-0.40,-10.19,0.00,-0.01,-0.01,-26.71,-20.80,46.5414815.00,-0.08,-0.38,-10.21,-0.00,-0.01,-0.01,-26.71,-20.80,46.5414866.00,-0.09,-0.41,-10.17,0.00,-0.01,-0.01,-27.94,-19.92,46.3714916.00,-0.05,-0.39,-10.18,-0.00,-0.01,-0.01,-27.94,-19.92,46.3714967.00,-0.07,-0.40,-10.18,0.00,-0.01,-0.01,-28.82,-19.04,46.5415017.00,-0.07,-0.40,-10.19,-0.00,-0.01,-0.01,-28.82,-19.04,46.5415068.00,-0.07,-0.40,-10.19,0.00,-0.01,-0.01,-27.94,-19.57,46.7115119.00,-0.07,-0.40,-10.18,0.00,-0.01,-0.01,-27.94,-19.57,46.7115169.00,-0.07,-0.40,-10.18,-0.00,-0.01,-0.01,-27.94,-19.57,46.7115220.00,-0.09,-0.42,-10.19,0.00,-0.01,-0.01,-28.46,-20.10,46.8815271.00,-0.06,-0.40,-10.19,-0.00,-0.01,-0.01,-28.46,-20.10,46.8815322.00,-0.08,-0.39,-10.22,0.00,-0.01,-0.01,-28.64,-19.57,48.0715372.00,-0.08,-0.40,-10.19,0.00,-0.01,-0.01,-28.64,-19.57,48.0715423.00,-0.07,-0.37,-10.20,0.00,-0.01,-0.01,-28.64,-19.57,48.0715474.00,-0.08,-0.40,-10.20,0.00,-0.01,-0.01,-28.82,-20.45,47.9015524.00,-0.09,-0.41,-10.19,0.00,-0.01,-0.01,-28.82,-20.45,47.9015575.00,-0.07,-0.39,-10.20,0.00,-0.01,-0.01,-28.82,-20.45,47.9015626.00,-0.07,-0.39,-10.18,0.00,-0.01,-0.01,-28.64,-18.86,47.3915677.00,-0.07,-0.39,-10.20,0.00,-0.01,-0.01,-28.64,-18.86,47.3915727.00,-0.07,-0.40,-10.20,0.00,-0.01,-0.01,-28.64,-20.27,47.3915778.00,-0.08,-0.38,-10.18,0.00,-0.01,-0.01,-28.64,-20.27,47.3915829.00,-0.07,-0.40,-10.20,0.00,-0.01,-0.01,-27.76,-20.10,46.8815880.00,-0.06,-0.40,-10.19,0.00,-0.01,-0.01,-27.76,-20.10,46.8815930.00,-0.09,-0.40,-10.18,0.00,-0.01,-0.01,-27.76,-20.10,46.8815981.00,-0.07,-0.36,-10.19,0.00,-0.01,-0.01,-28.99,-19.22,46.7116032.00,-0.08,-0.37,-10.19,0.00,-0.01,-0.01,-28.99,-19.22,46.7116083.00,-0.07,-0.39,-10.23,0.00,-0.01,-0.01,-28.64,-19.22,46.3716133.00,-0.09,-0.38,-10.19,0.00,-0.01,-0.01,-28.64,-19.22,46.3716184.00,-0.10,-0.43,-10.18,0.00,-0.01,-0.01,-28.64,-19.22,46.3716235.00,-0.06,-0.34,-10.18,0.00,-0.01,-0.01,-29.17,-19.04,48.2416286.00,-0.04,-0.37,-10.18,-0.00,-0.01,-0.01,-29.17,-19.04,48.2416336.00,-0.10,-0.40,-10.21,0.00,-0.01,-0.01,-28.82,-17.63,46.8816387.00,-0.05,-0.38,-10.19,-0.00,-0.01,-0.01,-28.82,-17.63,46.8816438.00,-0.09,-0.38,-10.19,-0.00,-0.01,-0.01,-28.46,-20.10,46.5416489.00,-0.07,-0.41,-10.17,0.00,-0.01,-0.01,-28.46,-20.10,46.5416539.00,-0.08,-0.37,-10.16,0.00,-0.01,-0.01,-28.46,-20.10,46.5416590.00,-0.08,-0.41,-10.20,0.00,-0.01,-0.01,-29.17,-20.45,46.8816641.00,-0.08,-0.40,-10.21,0.00,-0.01,-0.01,-29.17,-20.45,46.8816692.00,-0.08,-0.40,-10.21,0.00,-0.01,-0.01,-29.17,-20.45,46.8816742.00,-0.07,-0.40,-10.21,-0.00,-0.01,-0.01,-29.17,-19.04,46.2016793.00,-0.07,-0.40,-10.18,0.00,-0.01,-0.01,-29.17,-19.04,46.2016844.00,-0.07,-0.38,-10.19,0.00,-0.01,-0.01,-28.29,-19.57,47.0516895.00,-0.07,-0.40,-10.17,0.00,-0.01,-0.01,-28.29,-19.57,47.0516945.00,-0.07,-0.39,-10.19,-0.00,-0.01,-0.01,-29.87,-20.45,46.5416996.00,-0.05,-0.40,-10.22,0.00,-0.01,-0.01,-29.87,-20.45,46.5417047.00,-0.05,-0.36,-10.19,-0.00,-0.01,-0.01,-29.87,-20.45,46.5417098.00,-0.09,-0.45,-10.20,0.00,-0.01,-0.01,-28.82,-19.04,46.8817149.00,-0.16,-0.32,-10.17,0.00,-0.01,-0.01,-28.82,-19.04,46.8817200.00,-0.02,-0.45,-10.20,0.00,-0.01,-0.01,-28.29,-19.92,46.3717250.00,-0.14,-0.35,-10.17,-0.00,-0.01,-0.01,-28.29,-19.92,46.3717301.00,-0.04,-0.45,-10.16,0.00,-0.01,-0.01,-28.29,-19.92,46.3717352.00,-0.07,-0.42,-10.21,0.00,-0.01,-0.01,-30.05,-19.57,46.3717403.00,-0.07,-0.39,-10.15,0.00,-0.01,-0.01,-30.05,-19.57,46.3717453.00,-0.03,-0.41,-10.20,0.00,-0.01,-0.01,-28.64,-19.22,46.0317504.00,-0.07,-0.38,-10.18,0.00,-0.01,-0.01,-28.64,-19.22,46.0317555.00,-0.06,-0.41,-10.16,0.00,-0.01,-0.01,-28.64,-19.22,46.0317606.00,-0.09,-0.36,-10.21,0.00,-0.01,-0.01,-27.94,-19.22,46.3717657.00,-0.08,-0.40,-10.18,0.00,-0.01,-0.01,-27.94,-19.22,46.3717707.00,-0.08,-0.37,-10.19,0.00,-0.01,-0.01,-28.64,-20.27,45.0117758.00,-0.07,-0.43,-10.18,0.00,-0.01,-0.01,-28.64,-20.27,45.0117809.00,-0.08,-0.38,-10.19,0.00,-0.01,-0.01,-28.64,-20.27,45.0117860.00,-0.06,-0.41,-10.18,0.00,-0.01,-0.01,-28.64,-21.33,44.3317911.00,-0.07,-0.39,-10.18,0.00,-0.01,-0.01,-28.64,-21.33,44.3317962.00,-0.07,-0.41,-10.20,-0.00,-0.01,-0.01,-28.99,-20.27,45.0118012.00,-0.06,-0.39,-10.22,0.00,-0.01,-0.01,-28.99,-20.27,45.0118063.00,-0.07,-0.39,-10.18,0.00,-0.01,-0.01,-28.99,-20.27,45.0118114.00,-0.07,-0.41,-10.17,-0.00,-0.01,-0.01,-27.59,-19.57,45.0118165.00,-0.07,-0.40,-10.18,0.00,-0.01,-0.01,-27.59,-19.57,45.0118216.00,-0.06,-0.39,-10.22,0.00,-0.01,-0.01,-28.82,-20.45,46.2018266.00,-0.05,-0.39,-10.19,0.00,-0.01,-0.01,-28.82,-20.45,46.2018317.00,-0.08,-0.41,-10.19,0.00,-0.01,-0.01,-28.82,-20.45,46.2018368.00,-0.06,-0.38,-10.20,0.00,-0.01,-0.01,-28.11,-20.45,45.8618419.00,-0.07,-0.40,-10.17,-0.00,-0.01,-0.01,-28.11,-20.45,45.8618470.00,-0.08,-0.41,-10.19,0.00,-0.01,-0.01,-28.82,-19.39,46.5418521.00,-0.07,-0.39,-10.19,0.00,-0.01,-0.01,-28.82,-19.39,46.5418572.00,-0.05,-0.41,-10.18,0.00,-0.01,-0.01,-28.82,-19.39,46.5418623.00,-0.06,-0.41,-10.20,0.00,-0.01,-0.01,-27.76,-19.04,45.5218673.00,-0.07,-0.42,-10.19,0.00,-0.01,-0.01,-27.76,-19.04,45.5218724.00,-0.07,-0.39,-10.22,-0.00,-0.01,-0.01,-28.64,-19.22,45.3518775.00,-0.07,-0.40,-10.19,0.00,-0.01,-0.01,-28.64,-19.22,45.3518826.00,-0.07,-0.40,-10.20,0.00,-0.01,-0.01,-28.99,-20.27,45.6918877.00,-0.07,-0.38,-10.19,0.00,-0.01,-0.01,-28.99,-20.27,45.6918928.00,-0.06,-0.38,-10.17,0.00,-0.01,-0.01,-28.99,-20.27,45.6918979.00,-0.07,-0.40,-10.19,0.00,-0.01,-0.01,-28.29,-19.22,44.6719030.00,-0.08,-0.41,-10.19,0.00,-0.01,-0.01,-28.29,-19.22,44.6719081.00,-0.08,-0.39,-10.21,-0.00,-0.01,-0.01,-28.46,-19.39,45.8619132.00,-0.07,-0.40,-10.19,0.00,-0.01,-0.01,-28.46,-19.39,45.8619183.00,-0.07,-0.38,-10.19,0.00,-0.01,-0.01,-28.46,-19.39,45.8619233.00,-0.06,-0.41,-10.20,0.00,-0.01,-0.01,-27.76,-19.75,45.5219284.00,-0.08,-0.41,-10.17,0.00,-0.01,-0.01,-27.76,-19.75,45.5219335.00,-0.08,-0.41,-10.20,0.00,-0.01,-0.01,-29.69,-20.27,44.3319386.00,-0.06,-0.40,-10.17,0.00,-0.01,-0.01,-29.69,-20.27,44.3319437.00,-0.06,-0.41,-10.20,0.00,-0.01,-0.01,-29.69,-20.27,44.3319488.00,-0.07,-0.39,-10.21,0.00,-0.01,-0.01,-27.94,-20.27,46.0319539.00,-0.07,-0.41,-10.17,-0.00,-0.01,-0.01,-27.94,-20.27,46.0319590.00,-0.07,-0.40,-10.21,0.00,-0.01,-0.01,-29.17,-20.10,46.5419641.00,-0.08,-0.40,-10.18,0.00,-0.01,-0.01,-29.17,-20.10,46.5419692.00,-0.08,-0.40,-10.20,0.00,-0.01,-0.01,-29.17,-20.10,46.5419743.00,-0.07,-0.41,-10.18,0.00,-0.01,-0.01,-29.17,-20.10,45.5219793.00,-0.07,-0.40,-10.20,0.00,-0.01,-0.01,-29.17,-20.10,45.5219844.00,-0.07,-0.40,-10.21,0.00,-0.01,-0.01,-28.82,-19.39,46.5419895.00,-0.07,-0.40,-10.18,0.00,-0.01,-0.01,-28.82,-19.39,46.5419946.00,-0.08,-0.41,-10.19,0.00,-0.01,-0.01,-28.82,-19.39,46.5419997.00,-0.08,-0.39,-10.19,0.00,-0.01,-0.01,-30.57,-19.39,45.8620048.00,-0.08,-0.40,-10.20,0.00,-0.01,-0.01,-30.57,-19.39,45.8620099.00,-0.07,-0.38,-10.19,0.00,-0.01,-0.01,-27.76,-20.45,46.5420150.00,-0.07,-0.39,-10.17,0.00,-0.01,-0.01,-27.76,-20.45,46.5420201.00,-0.07,-0.40,-10.19,0.00,-0.01,-0.01,-29.34,-19.92,46.3720252.00,-0.07,-0.40,-10.20,0.00,-0.01,-0.01,-29.34,-19.92,46.3720303.00,-0.06,-0.39,-10.18,0.00,-0.01,-0.01,-29.34,-19.92,46.3720354.00,-0.08,-0.41,-10.20,0.00,-0.01,-0.01,-28.46,-20.45,46.5420405.00,-0.07,-0.39,-10.17,0.00,-0.01,-0.01,-28.46,-20.45,46.5420456.00,-0.06,-0.39,-10.20,0.00,-0.01,-0.01,-28.46,-20.45,46.5420507.00,-0.06,-0.40,-10.17,-0.00,-0.01,-0.01,-28.82,-19.04,44.5020558.00,-0.07,-0.39,-10.17,-0.00,-0.01,-0.01,-28.82,-19.04,44.5020609.00,-0.08,-0.38,-10.20,0.00,-0.01,-0.01,-29.87,-18.69,44.8420660.00,-0.07,-0.39,-10.20,-0.00,-0.01,-0.01,-29.87,-18.69,44.8420711.00,-0.07,-0.40,-10.20,0.00,-0.01,-0.01,-28.82,-19.39,45.8620762.00,-0.07,-0.40,-10.20,0.00,-0.01,-0.01,-28.82,-19.39,45.8620813.00,-0.06,-0.41,-10.19,0.00,-0.01,-0.01,-28.82,-19.39,45.8620864.00,-0.08,-0.40,-10.20,0.00,-0.01,-0.01,-28.29,-19.57,45.0120915.00,-0.06,-0.40,-10.18,0.00,-0.01,-0.01,-28.29,-19.57,45.0120966.00,-0.08,-0.39,-10.19,0.00,-0.01,-0.01,-28.11,-20.10,43.8221018.00,-0.08,-0.41,-10.23,-0.00,-0.01,-0.01,-28.11,-20.10,43.8221069.00,-0.08,-0.40,-10.17,0.00,-0.01,-0.01,-28.11,-20.10,43.8221120.00,-0.06,-0.40,-10.19,0.00,-0.01,-0.01,-29.17,-18.33,45.8621171.00,-0.07,-0.40,-10.17,0.00,-0.01,-0.01,-29.17,-18.33,45.8621222.00,-0.09,-0.40,-10.20,0.00,-0.01,-0.01,-28.11,-19.04,43.4821273.00,-0.06,-0.39,-10.22,0.00,-0.01,-0.01,-28.11,-19.04,43.4821324.00,-0.07,-0.41,-10.19,-0.00,-0.01,-0.01,-28.11,-19.04,43.4821375.00,-0.08,-0.39,-10.18,0.00,-0.01,-0.01,-27.94,-19.57,44.3321426.00,-0.08,-0.39,-10.20,0.00,-0.01,-0.01,-27.94,-19.57,44.3321477.00,-0.08,-0.40,-10.24,0.00,-0.01,-0.01,-28.99,-20.63,43.9921528.00,-0.07,-0.39,-10.19,0.00,-0.01,-0.01,-28.99,-20.63,43.9921579.00,-0.08,-0.40,-10.19,0.00,-0.01,-0.01,-28.99,-20.63,43.9921630.00,-0.06,-0.40,-10.19,0.00,-0.01,-0.01,-27.76,-20.45,45.5221681.00,-0.07,-0.39,-10.18,-0.00,-0.01,-0.01,-27.76,-20.45,45.5221733.00,-0.07,-0.39,-10.17,0.00,-0.01,-0.01,-28.82,-19.39,44.5021784.00,-0.08,-0.39,-10.19,0.00,-0.01,-0.01,-28.82,-19.39,44.5021835.00,-0.08,-0.39,-10.20,-0.00,-0.01,-0.01,-28.82,-19.39,44.5021886.00,-0.08,-0.40,-10.17,-0.00,-0.01,-0.01,-28.82,-20.45,44.8421937.00,-0.07,-0.41,-10.21,0.00,-0.01,-0.01,-28.82,-20.45,44.8421988.00,-0.09,-0.41,-10.18,0.00,-0.01,-0.01,-28.64,-20.27,45.0122039.00,-0.06,-0.39,-10.21,0.00,-0.01,-0.01,-28.64,-20.27,45.0122090.00,-0.08,-0.39,-10.22,0.00,-0.01,-0.01,-28.99,-19.57,44.6722141.00,-0.07,-0.40,-10.19,0.00,-0.01,-0.01,-28.99,-19.57,44.6722193.00,-0.07,-0.41,-10.17,0.00,-0.01,-0.01,-28.99,-19.57,44.6722244.00,-0.06,-0.40,-10.19,0.00,-0.01,-0.01,-29.17,-18.69,46.2022295.00,-0.07,-0.39,-10.18,0.00,-0.01,-0.01,-29.17,-18.69,46.2022346.00,-0.07,-0.38,-10.20,0.00,-0.01,-0.01,-28.82,-19.39,44.8422397.00,-0.07,-0.38,-10.19,-0.00,-0.01,-0.01,-28.82,-19.39,44.8422448.00,-0.07,-0.40,-10.19,0.00,-0.01,-0.01,-28.82,-19.39,44.8422499.00,-0.07,-0.42,-10.20,0.00,-0.01,-0.01,-28.29,-18.16,43.9922551.00,-0.08,-0.38,-10.21,0.00,-0.01,-0.01,-28.29,-18.16,43.9922602.00,-0.07,-0.40,-10.21,0.00,-0.01,-0.01,-28.11,-20.10,44.1622653.00,-0.07,-0.37,-10.20,0.00,-0.01,-0.01,-28.11,-20.10,44.1622704.00,-0.07,-0.40,-10.19,0.00,-0.01,-0.01,-28.11,-20.10,44.1622755.00,-0.08,-0.40,-10.21,0.00,-0.01,-0.01,-28.64,-19.22,44.6722806.00,-0.05,-0.40,-10.19,0.00,-0.01,-0.01,-28.64,-19.22,44.6722857.00,-0.08,-0.41,-10.25,0.00,-0.01,-0.01,-27.41,-19.04,45.8622909.00,-0.05,-0.38,-10.18,0.00,-0.01,-0.01,-27.41,-19.04,45.8622960.00,-0.09,-0.42,-10.20,0.00,-0.01,-0.01,-27.41,-19.04,45.8623011.00,-0.07,-0.41,-10.16,0.00,-0.01,-0.01,-28.82,-19.39,44.1623062.00,-0.07,-0.39,-10.18,0.00,-0.01,-0.01,-28.82,-19.39,44.1623113.00,-0.07,-0.42,-10.19,-0.00,-0.01,-0.01,-28.82,-19.39,44.5023165.00,-0.06,-0.38,-10.08,0.00,-0.01,-0.01,-28.82,-19.39,44.5023216.00,-0.08,-0.37,-10.16,0.00,-0.01,-0.01,-28.82,-19.39,44.5023267.00,-0.07,-0.38,-10.19,0.00,-0.01,-0.01,-28.99,-20.63,46.0323318.00,-0.07,-0.36,-10.19,0.00,-0.01,-0.01,-28.99,-20.63,46.0323369.00,-0.06,-0.40,-10.20,0.00,-0.01,-0.01,-27.76,-21.16,45.1823420.00,-0.08,-0.40,-10.17,0.00,-0.01,-0.01,-27.76,-21.16,45.1823472.00,-0.07,-0.40,-10.23,-0.00,-0.01,-0.01,-29.34,-18.16,43.9923523.00,-0.08,-0.41,-10.17,-0.00,-0.01,-0.01,-29.34,-18.16,43.9923574.00,-0.08,-0.39,-10.18,0.00,-0.01,-0.01,-29.34,-18.16,43.9923625.00,-0.08,-0.40,-10.21,0.00,-0.01,-0.01,-29.17,-19.04,42.8023676.00,-0.07,-0.38,-10.17,0.00,-0.01,-0.01,-29.17,-19.04,42.8023728.00,-0.08,-0.40,-10.19,-0.00,-0.01,-0.01,-30.22,-18.33,44.1623779.00,-0.08,-0.40,-10.19,0.00,-0.01,-0.01,-30.22,-18.33,44.1623830.00,-0.07,-0.41,-10.20,-0.00,-0.01,-0.01,-30.22,-18.33,44.1623881.00,-0.07,-0.39,-10.20,0.00,-0.01,-0.01,-28.82,-17.98,44.1623933.00,-0.07,-0.39,-10.19,0.00,-0.01,-0.01,-28.82,-17.98,44.1623984.00,-0.08,-0.40,-10.20,0.00,-0.01,-0.01,-28.64,-19.22,44.3324035.00,-0.08,-0.40,-10.20,0.00,-0.01,-0.01,-28.64,-19.22,44.3324086.00,-0.09,-0.40,-10.18,0.00,-0.01,-0.01,-28.29,-20.63,45.6924138.00,-0.07,-0.40,-10.19,0.00,-0.01,-0.01,-28.29,-20.63,45.6924189.00,-0.06,-0.39,-10.18,0.00,-0.01,-0.01,-28.29,-20.63,45.6924240.00,-0.08,-0.40,-10.21,0.00,-0.01,-0.01,-28.11,-19.75,44.8424291.00,-0.08,-0.39,-10.20,0.00,-0.01,-0.01,-28.11,-19.75,44.8424343.00,-0.08,-0.39,-10.17,-0.00,-0.01,-0.01,-28.11,-19.75,44.8424394.00,-0.07,-0.40,-10.19,-0.00,-0.01,-0.01,-27.94,-19.92,46.0324445.00,-0.07,-0.40,-10.18,0.00,-0.01,-0.01,-27.94,-19.92,46.0324496.00,-0.08,-0.39,-10.19,0.00,-0.01,-0.01,-27.76,-20.10,45.1824547.00,-0.08,-0.39,-10.19,0.00,-0.01,-0.01,-27.76,-20.10,45.1824599.00,-0.06,-0.38,-10.18,0.00,-0.01,-0.01,-27.76,-20.10,45.1824650.00,-0.06,-0.38,-10.20,0.00,-0.01,-0.01,-29.52,-19.39,44.5024701.00,-0.06,-0.39,-10.16,0.00,-0.01,-0.01,-29.52,-19.39,44.5024752.00,-0.07,-0.39,-10.18,0.00,-0.01,-0.01,-29.52,-18.69,45.5224804.00,-0.07,-0.39,-10.18,0.00,-0.01,-0.01,-29.52,-18.69,45.5224855.00,-0.05,-0.39,-10.21,0.00,-0.01,-0.01,-29.52,-19.75,46.2024906.00,-0.09,-0.39,-10.18,0.00,-0.01,-0.01,-29.52,-19.75,46.2024957.00,-0.06,-0.39,-10.17,0.00,-0.01,-0.01,-29.52,-19.75,46.2025009.00,-0.08,-0.39,-10.19,0.00,-0.01,-0.01,-29.17,-21.16,46.2025060.00,-0.06,-0.40,-10.18,0.00,-0.01,-0.01,-29.17,-21.16,46.2025111.00,-0.08,-0.38,-10.20,0.00,-0.01,-0.01,-29.17,-18.69,45.5225162.00,-0.06,-0.39,-10.18,0.00,-0.01,-0.01,-29.17,-18.69,45.5225214.00,-0.08,-0.38,-10.19,0.00,-0.01,-0.01,-29.17,-18.69,45.5225265.00,-0.06,-0.40,-10.18,0.00,-0.01,-0.01,-28.82,-20.10,44.8425316.00,-0.08,-0.39,-10.18,0.00,-0.01,-0.01,-28.82,-20.10,44.8425367.00,-0.08,-0.40,-10.17,0.00,-0.01,-0.01,-29.52,-19.75,46.5425419.00,-0.08,-0.40,-10.20,0.00,-0.01,-0.01,-29.52,-19.75,46.5425470.00,-0.06,-0.41,-10.19,-0.00,-0.01,-0.01,-28.46,-18.69,45.5225523.00,-0.08,-0.38,-10.20,0.00,-0.01,-0.01,-28.46,-18.69,45.5225576.00,-0.06,-0.41,-10.19,-0.00,-0.01,-0.01,-28.46,-18.69,45.5225626.00,-0.06,-0.38,-10.19,0.00,-0.01,-0.01,-28.46,-20.10,45.5225676.00,-0.06,-0.39,-10.20,0.00,-0.01,-0.01,-28.46,-20.10,45.5225726.00,-0.07,-0.40,-10.19,0.00,-0.01,-0.01,-27.41,-20.10,45.1825776.00,-0.08,-0.38,-10.19,-0.00,-0.01,-0.01,-27.41,-20.10,45.1825826.00,-0.07,-0.40,-10.18,-0.00,-0.01,-0.01,-27.41,-20.10,45.1825876.00,-0.07,-0.38,-10.21,0.00,-0.01,-0.01,-28.46,-20.45,44.8425926.00,-0.07,-0.39,-10.20,0.00,-0.01,-0.01,-28.46,-20.45,44.8425976.00,-0.06,-0.40,-10.19,0.00,-0.01,-0.01,-29.87,-19.04,44.5026026.00,-0.08,-0.37,-10.18,0.00,-0.01,-0.01,-29.87,-19.04,44.5026076.00,-0.06,-0.40,-10.19,0.00,-0.01,-0.01,-29.87,-19.04,44.5026126.00,-0.08,-0.42,-10.20,0.00,-0.01,-0.01,-28.99,-19.22,45.6926176.00,-0.07,-0.39,-10.20,0.00,-0.01,-0.01,-28.99,-19.22,45.6926226.00,-0.07,-0.42,-10.19,0.00,-0.01,-0.01,-28.99,-19.22,45.6926276.00,-0.08,-0.37,-10.19,0.00,-0.01,-0.01,-28.46,-21.16,44.1626326.00,-0.07,-0.38,-10.20,0.00,-0.01,-0.01,-28.46,-21.16,44.1626376.00,-0.07,-0.39,-10.18,0.00,-0.01,-0.01,-28.46,-20.10,44.5026426.00,-0.07,-0.37,-10.17,0.00,-0.01,-0.01,-28.46,-20.10,44.5026476.00,-0.07,-0.41,-10.18,0.00,-0.01,-0.01,-28.46,-20.10,44.5026526.00,-0.07,-0.38,-10.20,0.00,-0.01,-0.01,-28.46,-20.10,44.5026576.00,-0.06,-0.40,-10.18,0.00,-0.01,-0.01,-28.46,-20.10,44.5026626.00,-0.06,-0.42,-10.20,-0.00,-0.01,-0.01,-28.82,-19.75,45.8626676.00,-0.08,-0.38,-10.19,0.00,-0.01,-0.01,-28.82,-19.75,45.8626726.00,-0.08,-0.43,-10.16,0.00,-0.01,-0.01,-28.82,-19.75,45.8626776.00,-0.07,-0.38,-10.19,0.00,-0.01,-0.01,-28.64,-19.22,44.3326826.00,-0.08,-0.37,-10.17,-0.00,-0.01,-0.01,-28.64,-19.22,44.3326876.00,-0.07,-0.41,-10.19,0.00,-0.01,-0.01,-28.46,-19.04,45.5226926.00,-0.07,-0.38,-10.18,0.00,-0.01,-0.01,-28.46,-19.04,45.5226976.00,-0.09,-0.41,-10.19,0.00,-0.01,-0.01,-28.46,-19.04,45.5227026.00,-0.06,-0.38,-10.20,0.00,-0.01,-0.01,-29.87,-19.04,45.1827076.00,-0.08,-0.40,-10.20,0.00,-0.01,-0.01,-29.87,-19.04,45.1827126.00,-0.06,-0.41,-10.20,0.00,-0.01,-0.01,-27.41,-19.75,44.8427176.00,-0.08,-0.40,-10.19,0.00,-0.01,-0.01,-27.41,-19.75,44.8427226.00,-0.06,-0.39,-10.20,0.00,-0.01,-0.01,-27.41,-19.75,44.8427276.00,-0.06,-0.37,-10.20,0.00,-0.01,-0.01,-28.29,-19.57,44.6727326.00,-0.06,-0.40,-10.19,0.00,-0.01,-0.01,-28.29,-19.57,44.6727377.00,-0.06,-0.40,-10.21,0.00,-0.01,-0.01,-29.34,-19.57,45.0127426.00,-0.07,-0.42,-10.19,-0.00,-0.01,-0.01,-29.34,-19.57,45.0127476.00,-0.07,-0.39,-10.17,0.00,-0.01,-0.01,-29.34,-19.57,45.0127526.00,-0.07,-0.40,-10.19,0.00,-0.01,-0.01,-27.76,-19.75,46.8827577.00,-0.08,-0.39,-10.19,0.00,-0.01,-0.01,-27.76,-19.75,46.8827626.00,-0.06,-0.41,-10.21,0.00,-0.01,-0.01,-29.69,-19.57,45.3527676.00,-0.07,-0.40,-10.21,0.00,-0.01,-0.01,-29.69,-19.57,45.3527726.00,-0.07,-0.39,-10.21,0.00,-0.01,-0.01,-29.69,-19.57,45.3527777.00,-0.08,-0.40,-10.19,-0.00,-0.01,-0.01,-28.46,-20.45,45.8627827.00,-0.06,-0.38,-10.17,0.00,-0.01,-0.01,-28.46,-20.45,45.8627877.00,-0.07,-0.38,-10.20,0.00,-0.01,-0.01,-29.69,-19.22,45.3527927.00,-0.06,-0.39,-10.20,0.00,-0.01,-0.01,-29.69,-19.22,45.3527977.00,-0.06,-0.40,-10.18,-0.00,-0.01,-0.01,-29.69,-19.22,45.3528027.00,-0.07,-0.40,-10.18,0.00,-0.01,-0.01,-28.64,-19.92,45.6928077.00,-0.08,-0.40,-10.19,0.00,-0.01,-0.01,-28.64,-19.92,45.6928127.00,-0.07,-0.41,-10.21,0.00,-0.01,-0.01,-28.82,-19.39,45.8628177.00,-0.07,-0.38,-10.20,0.00,-0.01,-0.01,-28.82,-19.39,45.8628227.00,-0.06,-0.40,-10.19,0.00,-0.01,-0.01,-28.82,-19.39,45.8628277.00,-0.07,-0.39,-10.19,0.00,-0.01,-0.01,-28.46,-19.75,45.1828327.00,-0.09,-0.40,-10.18,0.00,-0.01,-0.01,-28.46,-19.75,45.1828377.00,-0.07,-0.39,-10.21,0.00,-0.01,-0.01,-28.46,-20.45,44.5028427.00,-0.06,-0.39,-10.21,0.00,-0.01,-0.01,-28.46,-20.45,44.5028477.00,-0.07,-0.40,-10.18,0.00,-0.01,-0.01,-28.46,-20.45,44.5028527.00,-0.07,-0.39,-10.21,0.00,-0.01,-0.01,-29.17,-20.10,46.2028577.00,-0.06,-0.40,-10.19,0.00,-0.01,-0.01,-29.17,-20.10,46.2028627.00,-0.07,-0.39,-10.20,0.00,-0.01,-0.01,-28.11,-20.80,45.8628677.00,-0.07,-0.40,-10.18,0.00,-0.01,-0.01,-28.11,-20.80,45.8628728.00,-0.08,-0.40,-10.17,0.00,-0.01,-0.01,-28.11,-20.80,45.8628778.00,-0.06,-0.40,-10.16,0.00,-0.01,-0.01,-29.52,-20.45,45.5228828.00,-0.08,-0.40,-10.17,0.00,-0.01,-0.01,-29.52,-20.45,45.5228878.00,-0.08,-0.41,-10.21,0.00,-0.01,-0.01,-28.46,-20.10,47.2228928.00,-0.08,-0.40,-10.20,0.00,-0.01,-0.01,-28.46,-20.10,47.2228978.00,-0.07,-0.38,-10.20,0.00,-0.01,-0.01,-28.46,-20.10,47.2229028.00,-0.07,-0.39,-10.20,0.00,-0.01,-0.01,-28.99,-21.33,45.6929078.00,-0.08,-0.39,-10.20,0.00,-0.01,-0.01,-28.99,-21.33,45.6929128.00,-0.07,-0.41,-10.21,0.00,-0.01,-0.01,-28.64,-19.57,45.3529178.00,-0.08,-0.39,-10.20,0.00,-0.01,-0.01,-28.64,-19.57,45.3529228.00,-0.07,-0.40,-10.19,0.00,-0.01,-0.01,-28.64,-19.57,45.3529279.00,-0.07,-0.40,-10.20,0.00,-0.01,-0.01,-28.11,-19.75,44.8429329.00,-0.08,-0.39,-10.18,0.00,-0.01,-0.01,-28.11,-19.75,44.8429379.00,-0.07,-0.40,-10.19,0.00,-0.01,-0.01,-27.59,-19.22,45.6929429.00,-0.06,-0.39,-10.18,-0.00,-0.01,-0.01,-27.59,-19.22,45.6929479.00,-0.06,-0.40,-10.21,-0.00,-0.01,-0.01,-27.59,-19.22,45.6929529.00,-0.06,-0.40,-10.21,0.00,-0.01,-0.01,-27.76,-18.69,45.5229579.00,-0.06,-0.39,-10.17,0.00,-0.01,-0.01,-27.76,-18.69,45.5229630.00,-0.08,-0.39,-10.19,0.00,-0.01,-0.01,-28.64,-18.51,44.6729680.00,-0.06,-0.41,-10.18,0.00,-0.01,-0.01,-28.64,-18.51,44.6729730.00,-0.06,-0.38,-10.21,-0.00,-0.01,-0.01,-28.29,-18.51,86.7929780.00,-0.07,-0.39,-10.18,-0.00,-0.01,-0.01,-28.29,-18.51,43.3129830.00,-0.08,-0.40,-10.19,0.00,-0.01,-0.01,-28.29,-18.51,43.3129881.00,-0.07,-0.39,-10.20,-0.00,-0.01,-0.01,-28.29,-20.27,44.6729931.00,-0.06,-0.40,-10.18,0.00,-0.01,-0.01,-28.29,-20.27,44.6729982.00,-0.07,-0.39,-10.19,-0.00,-0.01,-0.01,-28.29,-20.27,44.6730032.00,-0.07,-0.39,-10.20,0.00,-0.01,-0.01,-28.64,-20.27,45.0130082.00,-0.08,-0.40,-10.19,0.00,-0.01,-0.01,-28.64,-20.27,45.0130132.00,-0.07,-0.39,-10.19,0.00,-0.01,-0.01,-29.17,-19.39,44.1630182.00,-0.06,-0.41,-10.19,-0.00,-0.01,-0.01,-29.17,-19.39,44.1630233.00,-0.07,-0.41,-10.19,0.00,-0.01,-0.01,-28.11,-18.33,45.1830283.00,-0.05,-0.40,-10.19,0.00,-0.01,-0.01,-28.11,-18.33,45.1830333.00,-0.07,-0.41,-10.18,0.00,-0.01,-0.01,-28.11,-18.33,45.1830383.00,-0.06,-0.40,-10.18,-0.00,-0.01,-0.01,-29.52,-20.45,46.8830433.00,-0.07,-0.38,-10.18,-0.00,-0.01,-0.01,-29.52,-20.45,46.8830484.00,-0.06,-0.41,-10.20,0.00,-0.01,-0.01,-29.52,-20.45,46.8830534.00,-0.07,-0.40,-10.18,-0.00,-0.01,-0.01,-27.41,-19.75,45.1830584.00,-0.07,-0.39,-10.15,0.00,-0.01,-0.01,-27.41,-19.75,45.1830634.00,-0.08,-0.39,-10.19,0.00,-0.01,-0.01,-28.11,-20.10,46.2030684.00,-0.06,-0.39,-10.21,0.00,-0.01,-0.01,-28.11,-20.10,46.2030735.00,-0.06,-0.39,-10.18,0.00,-0.01,-0.01,-28.11,-20.45,44.5030785.00,-0.07,-0.41,-10.19,0.00,-0.01,-0.01,-28.11,-20.45,44.5030835.00,-0.06,-0.38,-10.17,0.00,-0.01,-0.01,-28.11,-20.45,44.5030885.00,-0.08,-0.41,-10.24,0.00,-0.01,-0.01,-27.94,-19.22,45.3530936.00,-0.07,-0.38,-10.19,-0.00,-0.01,-0.01,-27.94,-19.22,45.3530986.00,-0.06,-0.41,-10.18,0.00,-0.01,-0.01,-27.94,-19.22,45.3531036.00,-0.07,-0.40,-10.20,0.00,-0.01,-0.01,-29.52,-20.80,45.8631086.00,-0.08,-0.39,-10.18,0.00,-0.01,-0.01,-29.52,-20.80,45.8631137.00,-0.09,-0.40,-10.19,0.00,-0.01,-0.01,-29.87,-17.28,44.1631187.00,-0.07,-0.40,-10.21,0.00,-0.01,-0.01,-29.87,-17.28,44.1631237.00,-0.07,-0.39,-10.19,0.00,-0.01,-0.01,-29.87,-17.28,44.1631287.00,-0.08,-0.40,-10.21,0.00,-0.01,-0.01,-28.29,-20.63,45.6931338.00,-0.06,-0.39,-10.18,0.00,-0.01,-0.01,-28.29,-20.63,45.6931388.00,-0.06,-0.39,-10.20,0.00,-0.01,-0.01,-28.11,-20.10,46.8831438.00,-0.06,-0.41,-10.19,0.00,-0.01,-0.01,-28.11,-20.10,46.8831489.00,-0.07,-0.39,-10.19,0.00,-0.01,-0.01,-28.11,-20.10,46.8831539.00,-0.06,-0.41,-10.19,0.00,-0.01,-0.01,-28.64,-18.51,45.3531589.00,-0.06,-0.40,-10.16,0.00,-0.01,-0.01,-28.64,-18.51,45.3531639.00,-0.06,-0.40,-10.20,0.00,-0.01,-0.01,-28.29,-20.63,47.0531690.00,-0.05,-0.37,-10.20,0.00,-0.01,-0.01,-28.29,-20.63,47.0531740.00,-0.07,-0.41,-10.20,0.00,-0.01,-0.01,-28.29,-20.63,47.0531790.00,-0.07,-0.39,-10.21,0.00,-0.01,-0.01,-28.11,-20.10,46.8831840.00,-0.06,-0.40,-10.19,0.00,-0.01,-0.01,-28.11,-20.10,46.8831891.00,-0.06,-0.39,-10.20,0.00,-0.01,-0.01,-28.46,-20.45,44.5031941.00,-0.06,-0.40,-10.20,0.00,-0.01,-0.01,-28.46,-20.45,44.5031992.00,-0.06,-0.39,-10.19,0.00,-0.01,-0.01,-28.46,-20.45,44.5032042.00,-0.06,-0.39,-10.18,0.00,-0.01,-0.01,-29.34,-20.98,47.0532092.00,-0.07,-0.39,-10.19,0.00,-0.01,-0.01,-29.34,-20.98,47.0532142.00,-0.07,-0.40,-10.20,0.00,-0.01,-0.01,-29.69,-18.86,47.7332193.00,-0.07,-0.39,-10.20,0.00,-0.01,-0.01,-29.69,-18.86,47.7332243.00,-0.07,-0.39,-10.19,0.00,-0.01,-0.01,-29.69,-18.86,47.7332293.00,-0.07,-0.40,-10.18,0.00,-0.01,-0.01,-30.05,-19.22,47.0532344.00,-0.07,-0.39,-10.18,0.00,-0.01,-0.01,-30.05,-19.22,47.0532394.00,-0.06,-0.41,-10.20,0.00,-0.01,-0.01,-28.64,-19.57,46.3732444.00,-0.06,-0.39,-10.19,0.00,-0.01,-0.01,-28.64,-19.57,46.3732495.00,-0.07,-0.39,-10.19,0.00,-0.01,-0.01,-28.82,-19.75,46.2032545.00,-0.07,-0.40,-10.20,0.00,-0.01,-0.01,-28.82,-19.75,46.2032595.00,-0.08,-0.39,-10.19,0.00,-0.01,-0.01,-28.82,-19.75,46.2032646.00,-0.08,-0.40,-10.20,-0.00,-0.01,-0.01,-28.11,-20.45,45.5232696.00,-0.07,-0.39,-10.17,0.00,-0.01,-0.01,-28.11,-20.45,45.5232747.00,-0.07,-0.40,-10.19,0.00,-0.01,-0.01,-28.11,-20.45,45.5232797.00,-0.08,-0.41,-10.21,0.00,-0.01,-0.01,-27.94,-19.92,47.3932847.00,-0.09,-0.39,-10.18,0.00,-0.01,-0.01,-27.94,-19.92,47.3932898.00,-0.06,-0.39,-10.20,0.00,-0.01,-0.01,-28.99,-19.57,47.3932948.00,-0.11,-0.41,-10.24,0.00,-0.01,-0.01,-28.99,-19.57,47.3932998.00,-0.04,-0.40,-10.26,0.00,-0.01,-0.01,-28.46,-17.98,45.8633049.00,-0.11,-0.40,-10.16,0.00,-0.01,-0.01,-28.46,-17.98,45.8633099.00,-0.06,-0.42,-10.19,0.00,-0.01,-0.01,-28.46,-17.98,45.8633150.00,-0.07,-0.39,-10.20,-0.00,-0.01,-0.01,-28.11,-20.80,45.8633200.00,-0.06,-0.42,-10.19,0.00,-0.01,-0.01,-28.11,-20.80,45.8633250.00,-0.08,-0.40,-10.16,0.00,-0.01,-0.01,-28.11,-20.80,45.8633301.00,-0.06,-0.41,-10.19,0.00,-0.01,-0.01,-27.24,-19.92,46.3733351.00,-0.06,-0.40,-10.22,0.00,-0.01,-0.01,-27.24,-19.92,46.3733402.00,-0.08,-0.41,-10.22,0.00,-0.01,-0.01,-28.46,-19.75,46.8833452.00,-0.08,-0.38,-10.20,0.00,-0.01,-0.01,-28.46,-19.75,46.8833503.00,-0.07,-0.39,-10.17,0.00,-0.01,-0.01,-28.64,-19.22,46.7133553.00,-0.08,-0.41,-10.21,0.00,-0.01,-0.01,-28.64,-19.22,46.7133603.00,-0.06,-0.40,-10.17,0.00,-0.01,-0.01,-28.64,-19.22,46.7133654.00,-0.07,-0.38,-10.19,0.00,-0.01,-0.01,-28.29,-19.92,46.3733704.00,-0.08,-0.40,-10.19,-0.00,-0.01,-0.01,-28.29,-19.92,46.3733755.00,-0.06,-0.38,-10.20,0.00,-0.01,-0.01,-27.76,-20.10,46.8833806.00,-0.07,-0.39,-10.19,0.00,-0.01,-0.01,-27.76,-20.10,46.8833856.00,-0.09,-0.39,-10.17,0.00,-0.01,-0.01,-27.76,-20.10,46.8833907.00,-0.06,-0.41,-10.19,0.00,-0.01,-0.01,-28.99,-20.98,46.7133957.00,-0.08,-0.40,-10.17,0.00,-0.01,-0.01,-28.99,-20.98,46.7134007.00,-0.07,-0.39,-10.20,0.00,-0.01,-0.01,-28.99,-19.57,48.0734058.00,-0.08,-0.40,-10.18,0.00,-0.01,-0.01,-28.99,-19.57,48.0734108.00,-0.05,-0.39,-10.17,0.00,-0.01,-0.01,-28.99,-19.57,48.0734159.00,-0.07,-0.38,-10.17,0.00,-0.01,-0.01,-27.59,-20.63,46.7134209.00,-0.06,-0.40,-10.15,0.00,-0.01,-0.01,-27.59,-20.63,46.7134260.00,-0.07,-0.39,-10.17,0.00,-0.01,-0.01,-28.29,-20.27,46.3734310.00,-0.08,-0.41,-10.19,0.00,-0.01,-0.01,-28.29,-20.27,46.3734361.00,-0.06,-0.39,-10.19,0.00,-0.01,-0.01,-28.29,-20.27,46.3734411.00,-0.07,-0.40,-10.19,0.00,-0.01,-0.01,-27.76,-20.80,46.8834462.00,-0.09,-0.40,-10.18,0.00,-0.01,-0.01,-27.76,-20.80,46.8834512.00,-0.07,-0.39,-10.20,0.00,-0.01,-0.01,-29.34,-19.92,47.0534562.00,-0.06,-0.40,-10.19,0.00,-0.01,-0.01,-29.34,-19.92,47.0534613.00,-0.06,-0.39,-10.21,0.00,-0.01,-0.01,-29.34,-19.92,47.0534663.00,-0.07,-0.41,-10.19,0.00,-0.01,-0.01,-28.82,-20.10,46.8834714.00,-0.08,-0.39,-10.20,0.00,-0.01,-0.01,-28.82,-20.10,46.8834764.00,-0.06,-0.41,-10.18,0.00,-0.01,-0.01,-28.29,-18.86,45.0134815.00,-0.07,-0.40,-10.20,0.00,-0.01,-0.01,-28.29,-18.86,45.0134865.00,-0.06,-0.40,-10.19,0.00,-0.01,-0.01,-28.29,-18.86,45.0134916.00,-0.06,-0.39,-10.17,0.00,-0.01,-0.01,-29.17,-18.69,46.8834966.00,-0.07,-0.40,-10.18,0.00,-0.01,-0.01,-29.17,-18.69,46.8835017.00,-0.07,-0.41,-10.20,0.00,-0.01,-0.01,-27.76,-19.75,47.9035067.00,-0.07,-0.41,-10.18,0.00,-0.01,-0.01,-27.76,-19.75,47.9035118.00,-0.07,-0.39,-10.17,0.00,-0.01,-0.01,-27.76,-19.75,47.9035168.00,-0.07,-0.37,-10.21,0.00,-0.01,-0.01,-28.64,-20.63,49.0935219.00,-0.05,-0.39,-10.21,0.00,-0.01,-0.01,-28.64,-20.63,49.0935269.00,0.01,-0.44,-10.25,0.00,-0.01,-0.01,-29.52,-20.45,47.2235320.00,0.48,-0.99,-9.90,-1.38,-0.15,0.69,-29.52,-20.45,47.2235370.00,-2.55,2.87,-11.45,1.23,0.35,-0.13,-29.52,-20.45,47.2235421.00,1.03,-4.25,-7.70,3.34,1.14,-0.62,-28.82,-17.98,47.5635471.00,2.13,-4.45,-10.86,0.61,1.34,0.06,-28.82,-17.98,47.5635522.00,1.33,0.65,-12.81,1.29,-0.69,0.83,-19.68,-5.99,49.6035572.00,0.08,-2.64,-9.97,2.72,-1.58,-0.91,-19.68,-5.99,49.6035623.00,0.08,-9.23,-9.69,2.17,-1.51,0.91,-19.68,-5.99,49.6035673.00,-1.02,-4.11,-8.86,0.87,-2.18,2.14,-27.59,7.58,45.0135724.00,-3.03,-1.71,-6.59,1.00,-2.11,0.60,-27.59,7.58,45.0135774.00,-3.03,-5.55,-6.19,1.75,-1.73,-0.48,-40.41,8.46,37.7135825.00,-3.12,-8.32,-5.67,1.48,-1.62,-0.29,-40.41,8.46,37.7135875.00,-3.58,-7.37,-4.30,1.56,-1.50,0.16,-40.41,8.46,37.7135926.00,-4.78,-8.72,-4.47,1.21,-1.19,0.20,-45.51,15.69,29.3835976.00,-4.30,-8.54,-4.02,0.95,-1.35,0.61,-45.51,15.69,29.3836027.00,-4.97,-7.94,-5.06,1.31,-2.05,1.25,-50.60,14.81,19.7036077.00,-4.34,-6.44,-1.84,3.75,-3.10,1.51,-50.60,14.81,19.7036128.00,-5.10,-4.62,1.31,4.35,-2.97,1.55,-50.60,14.81,19.7036178.00,-6.24,-4.76,6.99,4.35,-1.95,1.37,-58.86,10.05,-3.9136229.00,-7.04,-2.91,7.24,2.41,-0.72,0.79,-58.86,10.05,-3.9136279.00,-6.03,-5.77,5.14,0.44,-0.09,-0.54,-60.09,-1.41,-15.6336330.00,-6.15,-5.94,5.15,0.72,-0.14,-0.16,-60.09,-1.41,-15.6336381.00,-6.46,-3.37,5.50,1.41,-0.21,0.50,-57.28,-3.17,-18.0036432.00,-6.56,-3.54,6.06,1.78,-0.36,0.48,-57.28,-3.17,-18.0036482.00,-6.71,-1.46,7.35,1.36,-0.38,0.58,-57.28,-3.17,-18.0036533.00,-6.74,-1.44,7.90,0.36,-0.22,0.16,-58.51,-10.75,-20.8936583.00,-6.13,-1.98,6.71,-0.20,-0.09,-0.27,-58.51,-10.75,-20.8936634.00,-6.18,-2.24,6.96,-0.08,-0.12,-0.22,-58.51,-10.75,-20.8936684.00,-6.48,-2.27,7.47,-0.05,-0.06,-0.21,-58.34,-9.17,-21.0636735.00,-6.52,-2.67,7.01,-0.23,0.07,-0.18,-58.34,-9.17,-21.0636786.00,-6.50,-2.36,7.26,-0.13,-0.02,-0.10,-57.63,-8.46,-20.3836836.00,-6.42,-2.54,6.69,-0.29,0.03,-0.18,-57.63,-8.46,-20.3836887.00,-6.06,-2.92,6.84,-0.04,-0.04,-0.04,-56.40,-8.64,-21.5736938.00,-6.28,-2.34,6.87,0.04,0.01,0.04,-56.40,-8.64,-21.5736988.00,-6.17,-2.57,6.94,-0.08,-0.02,-0.11,-56.40,-8.64,-21.5737039.00,-6.14,-2.93,6.73,-0.00,0.10,0.03,-57.98,-7.76,-22.7637089.00,-6.40,-2.39,6.43,0.24,0.05,0.13,-57.98,-7.76,-22.7637140.00,-6.27,-2.14,6.73,-0.03,-0.12,-0.04,-57.46,-8.64,-21.2337191.00,-5.97,-2.34,6.58,-0.26,-0.13,-0.17,-57.46,-8.64,-21.2337241.00,-6.05,-2.66,6.74,-0.10,-0.06,-0.13,-57.46,-8.64,-21.2337292.00,-6.33,-2.67,6.88,-0.14,-0.05,-0.15,-58.34,-7.40,-21.7437343.00,-6.53,-3.40,7.46,-0.15,0.01,-0.22,-58.34,-7.40,-21.7437393.00,-6.32,-3.21,6.73,-0.07,0.12,-0.03,-56.05,-5.47,-21.9137444.00,-6.21,-3.13,7.11,-0.01,0.03,0.06,-56.05,-5.47,-21.9137494.00,-6.25,-3.68,7.39,-0.23,0.14,0.10,-56.05,-5.47,-21.9137545.00,-6.34,-3.78,6.44,0.22,0.40,0.70,-58.16,-5.82,-21.9137596.00,-6.60,-1.72,6.19,0.96,0.29,0.92,-58.16,-5.82,-21.9137647.00,-7.28,-1.47,7.35,-0.31,0.11,-0.05,-59.39,-9.87,-19.7037697.00,-6.50,-2.94,6.66,0.03,0.45,-0.11,-59.39,-9.87,-19.7037748.00,-6.51,-1.06,5.21,1.08,0.65,0.50,-59.39,-9.87,-19.7037798.00,-7.02,-0.49,5.47,1.09,-0.29,-0.41,-61.15,-12.69,-16.3137849.00,-6.80,-1.70,6.45,0.55,-0.54,-0.52,-61.15,-12.69,-16.3137900.00,-6.71,-1.68,8.09,2.51,-0.50,-0.78,-59.04,-10.93,-20.0437950.00,-7.24,-1.20,6.86,0.58,-0.53,-0.76,-59.04,-10.93,-20.0438001.00,-6.09,-1.15,6.67,1.00,-0.00,-0.18,-59.04,-10.93,-20.0438052.00,-5.89,-0.73,8.13,1.34,-0.03,-0.11,-57.63,-13.40,-20.7238102.00,-4.56,-1.99,7.64,-0.45,0.20,0.57,-57.63,-13.40,-20.7238153.00,-5.74,-0.95,7.80,1.12,0.49,1.51,-59.57,-16.75,-19.8738204.00,-6.73,3.90,3.82,2.19,0.59,1.35,-59.57,-16.75,-19.8738255.00,-4.39,6.93,-4.79,3.96,-0.70,0.74,-59.57,-16.75,-19.8738305.00,-7.61,9.71,11.12,4.35,-1.57,1.64,-60.27,-35.08,-13.0838356.00,-5.51,7.29,4.58,1.42,-0.02,-0.22,-60.27,-35.08,-13.0838407.00,-5.90,6.94,3.79,-0.04,-0.21,-0.21,-56.75,-44.60,-4.9338457.00,-5.72,6.68,5.15,-0.47,-0.43,-0.18,-56.75,-44.60,-4.9338508.00,-5.35,7.05,4.60,0.12,-0.04,0.14,-56.75,-44.60,-4.9338559.00,-5.10,6.88,4.51,-0.01,-0.01,-0.04,-56.93,-45.13,-6.1138609.00,-5.86,6.93,4.79,0.10,0.12,-0.03,-56.93,-45.13,-6.1138660.00,-5.67,7.33,4.28,0.53,0.11,0.12,-57.81,-43.19,-6.6238711.00,-5.85,6.81,4.26,0.27,0.00,0.00,-57.81,-43.19,-6.6238761.00,-5.33,7.50,3.99,0.32,0.02,0.12,-57.81,-44.96,-4.9338812.00,-5.49,7.10,4.21,-0.01,-0.08,-0.06,-57.81,-44.96,-4.9338863.00,-5.57,7.13,4.15,-0.03,-0.00,-0.02,-57.81,-44.96,-4.9338913.00,-5.44,7.15,3.90,-0.10,0.04,0.02,-56.75,-44.96,-5.2738964.00,-5.18,7.19,3.94,-0.21,-0.07,-0.08,-56.75,-44.96,-5.2739015.00,-5.28,7.05,4.25,-0.15,-0.07,-0.12,-56.75,-44.96,-5.2739066.00,-5.41,7.01,4.30,0.11,0.05,-0.07,-55.88,-43.72,-6.1139116.00,-5.53,7.15,4.09,0.07,0.06,-0.11,-55.88,-43.72,-6.1139167.00,-5.56,6.96,4.10,0.10,0.01,-0.14,-57.63,-44.07,-5.7739218.00,-5.86,6.84,4.21,0.13,0.02,-0.11,-57.63,-44.07,-5.7739269.00,-5.68,7.11,3.51,0.11,0.08,-0.03,-57.28,-43.72,-3.7439319.00,-5.67,6.96,3.93,-0.13,-0.09,-0.10,-57.28,-43.72,-3.7439370.00,-5.67,6.93,4.13,0.02,0.01,-0.03,-57.28,-43.72,-3.7439421.00,-5.70,6.93,4.12,0.04,-0.01,-0.07,-57.28,-43.72,-4.7639472.00,-5.77,7.09,3.97,0.07,0.06,-0.05,-57.28,-43.72,-4.7639522.00,-5.68,7.01,3.65,0.24,0.11,0.01,-57.28,-44.07,-5.1039573.00,-5.73,7.09,3.74,-0.01,-0.01,-0.10,-57.28,-44.07,-5.1039624.00,-5.84,6.98,3.81,0.00,0.03,-0.10,-57.28,-44.07,-5.1039675.00,-5.96,7.00,3.63,0.01,0.00,-0.07,-57.98,-43.37,-5.1039726.00,-5.88,7.05,3.85,-0.02,-0.02,-0.04,-57.98,-43.37,-5.1039776.00,-5.81,6.89,3.72,-0.02,0.00,-0.07,-57.98,-43.37,-5.1039827.00,-5.84,6.94,3.90,-0.10,-0.08,-0.08,-56.40,-43.54,-5.9439878.00,-5.95,6.91,3.98,-0.06,-0.04,-0.09,-56.40,-43.54,-5.9439929.00,-6.00,6.85,3.90,-0.04,-0.03,-0.08,-58.16,-42.84,-4.9339980.00,-6.11,6.72,3.86,-0.01,-0.02,-0.06,-58.16,-42.84,-4.9340031.00,-6.06,6.87,3.93,-0.01,0.00,0.00,-59.39,-43.72,-5.4440082.00,-5.93,6.85,4.06,-0.08,-0.04,-0.04,-59.39,-43.72,-5.4440133.00,-5.86,6.89,3.98,-0.06,-0.03,-0.04,-59.39,-43.72,-5.4440183.00,-6.02,6.77,4.06,-0.05,-0.04,-0.06,-57.81,-43.19,-6.6240234.00,-6.01,6.73,4.03,0.01,-0.01,-0.04,-57.81,-43.19,-6.6240285.00,-6.04,6.77,4.02,-0.03,-0.02,-0.03,-57.98,-41.61,-4.7640336.00,-6.03,6.76,4.08,-0.03,-0.01,-0.02,-57.98,-41.61,-4.7640386.00,-5.91,6.77,4.02,-0.03,-0.02,-0.02,-57.98,-41.61,-4.7640437.00,-5.90,6.64,4.02,-0.08,-0.03,-0.04,-57.98,-41.25,-5.7740488.00,-6.01,6.63,4.16,-0.02,-0.00,-0.02,-57.98,-41.25,-5.7740539.00,-5.97,6.70,3.99,-0.02,-0.00,-0.02,-58.34,-41.25,-5.7740590.00,-5.97,6.60,4.14,-0.03,-0.01,-0.02,-58.34,-41.25,-5.7740641.00,-6.04,6.60,4.02,-0.02,0.00,0.01,-58.34,-41.25,-5.7740691.00,-5.92,6.65,4.11,-0.05,-0.00,0.01,-59.21,-41.78,-6.2840742.00,-5.94,6.56,4.27,-0.05,0.00,0.02,-59.21,-41.78,-6.2840793.00,-5.87,6.69,4.20,-0.03,0.01,0.02,-59.04,-40.90,-5.7740844.00,-5.77,6.69,4.21,-0.02,-0.01,-0.01,-59.04,-40.90,-5.7740895.00,-5.84,6.69,4.14,-0.04,-0.01,-0.04,-59.04,-40.90,-5.7740945.00,-6.08,6.48,4.21,-0.03,-0.01,-0.06,-59.04,-42.66,-5.7740996.00,-6.04,6.57,4.29,-0.04,-0.01,-0.01,-59.04,-42.66,-5.7741047.00,-5.93,6.62,4.25,-0.02,-0.01,-0.01,-59.21,-41.78,-5.2741098.00,-5.84,6.64,4.27,-0.00,-0.02,-0.01,-59.21,-41.78,-5.2741149.00,-5.99,6.56,4.14,0.00,-0.01,-0.04,-59.04,-41.96,-5.7741200.00,-6.01,6.47,4.24,-0.01,-0.01,-0.04,-59.04,-41.96,-5.7741251.00,-5.97,6.52,4.26,-0.04,-0.01,-0.01,-59.04,-41.96,-5.7741302.00,-5.98,6.65,4.22,-0.05,0.01,-0.02,-57.98,-40.20,-7.8141352.00,-6.07,6.60,4.41,-0.05,-0.00,-0.04,-57.98,-40.20,-7.8141403.00,-6.08,6.54,4.42,0.02,0.00,0.01,-59.57,-40.72,-5.6141454.00,-5.86,6.60,4.16,0.05,0.02,0.01,-59.57,-40.72,-5.6141505.00,-5.95,6.57,4.12,0.03,0.01,-0.02,-59.57,-40.72,-5.6141556.00,-5.95,6.54,4.11,0.01,-0.01,-0.04,-59.04,-40.55,-6.1141607.00,-5.93,6.65,4.35,0.01,-0.04,-0.06,-59.04,-40.55,-6.1141658.00,-6.05,6.47,4.33,0.03,-0.02,-0.09,-59.39,-41.25,-6.4541708.00,-6.26,6.41,4.19,0.00,0.01,-0.05,-59.39,-41.25,-6.4541759.00,-6.25,6.36,4.32,-0.01,0.01,-0.01,-59.39,-41.25,-6.4541810.00,-6.04,6.52,4.20,-0.02,0.02,0.03,-58.69,-42.31,-6.1141861.00,-5.99,6.60,4.29,-0.03,0.00,0.03,-58.69,-42.31,-6.1141912.00,-5.98,6.54,4.30,0.01,0.01,-0.00,-57.81,-41.08,-5.2741963.00,-6.02,6.50,4.26,0.03,0.00,-0.02,-57.81,-41.08,-5.2742014.00,-6.12,6.50,4.14,0.02,0.01,-0.02,-57.81,-41.08,-5.2742064.00,-6.15,6.45,4.25,-0.00,0.00,-0.02,-59.04,-41.25,-5.4442115.00,-6.15,6.60,4.20,0.01,0.02,-0.00,-59.04,-41.25,-5.4442166.00,-6.07,6.60,4.15,0.02,0.01,0.01,-58.69,-40.20,-6.4542217.00,-6.06,6.53,4.19,0.01,0.00,-0.01,-58.69,-40.20,-6.4542268.00,-6.15,6.59,4.19,0.01,-0.00,-0.02,-58.69,-40.20,-6.4542319.00,-6.08,6.50,4.12,0.02,0.02,-0.02,-59.04,-40.55,-5.4442370.00,-6.11,6.53,4.18,-0.00,-0.00,-0.03,-59.04,-40.55,-5.4442421.00,-6.11,6.52,4.07,0.01,0.01,-0.01,-58.86,-42.13,-5.6142472.00,-6.11,6.58,4.17,-0.01,0.00,-0.04,-58.86,-42.13,-5.6142523.00,-6.14,6.48,4.35,0.03,0.10,-0.09,-59.74,-42.13,-5.6142573.00,-6.19,6.34,3.75,0.08,0.11,-0.04,-59.74,-39.84,-5.4442624.00,-6.19,6.49,4.12,-0.02,-0.02,-0.04,-59.74,-39.84,-5.4442675.00,-6.23,6.49,3.90,0.00,0.01,-0.03,-59.39,-40.55,-5.4442726.00,-6.18,6.55,4.21,-0.03,-0.02,-0.03,-59.39,-40.55,-5.4442777.00,-6.22,6.52,4.15,0.01,-0.00,-0.04,-59.39,-40.55,-5.4442828.00,-6.26,6.38,4.12,0.03,0.01,-0.04,-58.51,-40.02,-4.9342879.00,-6.29,6.47,4.01,0.04,0.01,-0.02,-58.51,-40.02,-4.9342930.00,-6.19,6.41,3.90,0.01,0.01,-0.02,-58.86,-41.43,-4.2542981.00,-6.20,6.43,4.07,-0.02,-0.02,-0.03,-58.86,-41.43,-4.2543032.00,-6.21,6.47,4.04,0.00,-0.00,-0.03,-58.34,-40.20,-3.4043083.00,-6.21,6.44,4.06,-0.01,-0.01,-0.04,-58.34,-40.20,-3.4043134.00,-6.31,6.35,4.13,-0.02,-0.03,-0.04,-58.34,-40.20,-3.4043185.00,-6.32,6.47,4.17,0.01,-0.00,-0.01,-57.98,-40.20,-5.4443236.00,-6.20,6.41,4.10,0.05,0.00,0.00,-57.98,-40.20,-5.4443287.00,-6.22,6.46,3.92,0.03,-0.01,-0.02,-59.21,-40.02,-4.5943338.00,-6.29,6.45,4.00,0.01,-0.02,-0.04,-59.21,-40.02,-4.5943389.00,-6.39,6.43,4.09,0.02,-0.01,-0.02,-59.21,-40.02,-4.5943440.00,-6.36,6.34,4.09,0.03,-0.00,-0.02,-59.21,-39.67,-5.2743491.00,-6.30,6.38,3.95,0.00,0.00,0.00,-59.21,-39.67,-5.2743542.00,-6.29,6.50,3.98,-0.02,-0.00,0.02,-57.81,-41.08,-5.6143593.00,-6.26,6.51,4.02,-0.02,0.00,0.00,-57.81,-41.08,-5.6143644.00,-6.19,6.48,4.12,-0.02,-0.02,-0.01,-57.81,-41.08,-5.6143695.00,-6.22,6.48,4.05,0.00,-0.01,-0.02,-59.57,-41.78,-5.6143746.00,-6.35,6.48,4.08,0.01,-0.02,-0.03,-59.57,-41.78,-5.6143797.00,-6.34,6.37,3.99,0.01,-0.00,-0.02,-59.39,-40.90,-5.1043848.00,-6.27,6.45,4.04,-0.00,-0.01,-0.00,-59.39,-40.90,-5.1043899.00,-6.21,6.44,4.05,-0.02,-0.01,-0.01,-59.39,-40.90,-5.1043950.00,-6.29,6.46,3.97,0.02,-0.00,-0.00,-59.39,-40.20,-5.7744001.00,-6.33,6.37,4.05,0.01,-0.01,-0.02,-59.39,-40.20,-5.7744052.00,-6.26,6.60,3.93,0.12,0.05,0.05,-60.27,-38.96,-4.9344103.00,-6.28,6.62,4.04,0.05,-0.01,0.01,-60.27,-38.96,-4.9344154.00,-6.16,6.42,3.79,0.04,-0.01,0.02,-60.27,-38.96,-4.9344205.00,-6.42,6.47,4.25,0.05,-0.03,-0.01,-58.69,-41.25,-3.7444256.00,-6.04,6.65,3.89,0.22,0.03,0.10,-58.69,-41.25,-3.7444307.00,-5.84,6.99,3.42,0.48,0.15,0.03,-59.04,-40.90,-5.1044358.00,-6.20,6.64,3.34,0.13,-0.05,-0.14,-59.04,-40.90,-5.1044409.00,-6.53,6.46,3.33,0.04,-0.02,-0.13,-59.21,-41.08,-2.8944460.00,-6.56,6.59,3.36,-0.05,-0.02,-0.09,-59.21,-41.08,-2.8944511.00,-6.59,6.49,3.79,-0.11,-0.01,-0.05,-59.21,-41.08,-2.8944562.00,-6.36,6.68,3.73,-0.11,0.00,0.00,-59.92,-40.37,-4.5944613.00,-6.34,6.51,3.82,-0.05,0.00,-0.02,-59.92,-40.37,-4.5944664.00,-6.22,6.68,3.64,0.05,0.05,0.03,-59.92,-40.37,-4.5944715.00,-6.32,6.58,3.74,-0.09,-0.04,-0.05,-60.09,-41.96,-3.4044766.00,-6.35,6.57,3.74,-0.07,-0.04,-0.06,-60.09,-41.96,-3.4044817.00,-6.40,6.55,3.81,-0.10,-0.06,-0.07,-60.09,-40.20,-4.7644868.00,-6.49,6.52,3.80,-0.01,-0.01,-0.03,-60.09,-40.20,-4.7644920.00,-6.46,6.43,3.77,-0.03,-0.01,-0.03,-61.32,-39.31,-5.2744971.00,-6.41,6.57,3.84,-0.00,0.01,0.00,-61.32,-39.31,-5.2745022.00,-6.45,6.49,3.91,0.00,-0.00,-0.02,-61.32,-39.31,-5.2745073.00,-6.39,6.49,3.69,0.02,0.02,0.01,-59.21,-40.02,-3.9145124.00,-6.34,6.51,3.68,-0.03,-0.02,-0.02,-59.21,-40.02,-3.9145175.00,-6.38,6.52,3.84,-0.04,-0.03,-0.04,-61.32,-40.72,-4.2545226.00,-6.47,6.49,3.87,0.01,-0.01,-0.03,-61.32,-40.72,-4.2545277.00,-6.43,6.46,3.82,0.02,-0.00,-0.02,-61.32,-40.72,-4.2545328.00,-6.53,6.45,3.84,0.00,-0.01,-0.01,-60.27,-38.61,-4.2545380.00,-6.45,6.43,3.76,0.01,0.00,-0.00,-60.27,-38.61,-4.2545431.00,-6.43,6.50,3.86,-0.01,-0.01,-0.01,-60.62,-39.31,-3.2345482.00,-6.46,6.48,3.81,0.01,0.01,-0.01,-60.62,-39.31,-3.2345533.00,-6.42,6.54,3.75,0.01,0.00,-0.01,-60.62,-39.31,-3.2345584.00,-6.46,6.46,3.79,-0.01,-0.00,-0.03,-59.39,-39.14,-3.4045635.00,-6.45,6.50,3.82,-0.03,-0.01,-0.04,-59.39,-39.14,-3.4045686.00,-6.47,6.41,3.80,0.00,-0.00,-0.03,-60.27,-40.72,-5.2745738.00,-6.43,6.42,3.77,0.01,-0.00,-0.02,-60.27,-40.72,-5.2745789.00,-6.51,6.40,3.80,0.01,0.00,-0.02,-59.39,-39.84,-4.0845840.00,-6.56,6.40,3.84,0.00,0.00,-0.01,-59.39,-39.84,-4.0845891.00,-6.48,6.47,3.83,0.01,0.01,0.00,-59.39,-39.84,-4.0845942.00,-6.43,6.39,3.67,0.03,0.01,-0.00,-59.92,-40.02,-3.2345993.00,-6.54,6.32,3.77,-0.03,-0.02,-0.03,-59.92,-40.02,-3.2346044.00,-6.40,6.47,3.81,-0.00,-0.01,0.01,-59.92,-40.02,-3.2346096.00,-6.44,6.40,3.94,-0.01,-0.02,-0.04,-59.74,-38.43,-3.7446147.00,-6.57,6.43,3.71,0.03,0.00,-0.02,-59.74,-38.43,-3.7446198.00,-6.54,6.40,3.75,0.01,-0.01,-0.02,-60.09,-41.96,-4.7646249.00,-6.48,6.38,3.81,0.00,-0.01,-0.02,-60.09,-41.96,-4.7646300.00,-6.52,6.47,3.77,0.01,-0.01,-0.02,-59.21,-40.02,-3.2346352.00,-6.46,6.41,3.77,0.02,-0.00,-0.02,-59.21,-40.02,-3.2346403.00,-6.48,6.39,3.74,0.01,-0.01,-0.03,-59.21,-40.02,-3.2346454.00,-6.56,6.34,3.81,0.01,-0.01,-0.04,-59.74,-38.78,-2.7246505.00,-6.56,6.44,3.75,0.01,-0.00,-0.01,-59.74,-38.78,-2.7246556.00,-6.49,6.40,3.71,-0.00,-0.01,-0.02,-59.57,-40.02,-2.2146608.00,-6.50,6.39,3.73,0.02,0.00,-0.02,-59.57,-40.02,-2.2146659.00,-6.50,6.39,3.75,0.01,-0.00,-0.03,-59.57,-40.02,-2.2146710.00,-6.54,6.37,3.75,0.00,-0.01,-0.03,-58.86,-39.67,-4.2546761.00,-6.57,6.34,3.70,0.01,0.01,-0.02,-58.86,-39.67,-4.2546812.00,-6.67,6.41,3.72,-0.02,0.00,-0.00,-59.92,-38.96,-2.5546863.00,-6.49,6.38,3.77,-0.00,0.00,0.02,-59.92,-38.96,-2.5546914.00,-6.44,6.44,3.71,-0.00,-0.01,-0.02,-59.92,-38.96,-2.5546966.00,-6.53,6.42,3.73,-0.01,-0.02,-0.04,-59.04,-39.14,-2.0447017.00,-6.58,6.33,3.82,0.01,-0.01,-0.04,-59.04,-39.14,-2.0447068.00,-6.64,6.28,3.76,-0.00,-0.00,-0.02,-59.74,-37.73,-2.7247119.00,-6.57,6.43,3.70,0.01,0.01,0.01,-59.74,-37.73,-2.7247171.00,-6.51,6.44,3.71,0.00,0.00,-0.01,-60.27,-38.96,-2.8947222.00,-6.53,6.38,3.63,0.01,-0.00,-0.02,-60.27,-38.96,-2.8947273.00,-6.53,6.35,3.71,0.02,-0.01,-0.03,-60.27,-38.96,-2.8947324.00,-6.50,6.43,3.68,0.01,-0.01,-0.03,-58.34,-38.78,-3.7447376.00,-6.58,6.35,3.66,0.03,-0.01,-0.05,-58.34,-38.78,-3.7447427.00,-6.64,6.36,3.68,0.02,-0.01,-0.05,-58.34,-38.78,-3.7447478.00,-6.71,6.32,3.62,0.10,0.04,0.01,-58.86,-37.20,-3.5747529.00,-6.64,6.53,3.56,0.19,0.07,0.04,-58.86,-37.20,-3.5747580.00,-6.52,6.52,3.42,0.06,0.02,0.02,-60.27,-40.37,-2.8947632.00,-6.62,6.48,3.49,-0.02,-0.01,-0.03,-60.27,-40.37,-2.8947683.00,-6.60,6.43,3.52,-0.02,-0.01,-0.04,-59.57,-38.26,-1.5347734.00,-6.61,6.32,3.53,-0.01,-0.00,-0.03,-59.57,-38.26,-1.5347785.00,-6.61,6.49,3.45,-0.02,-0.01,-0.03,-59.57,-38.26,-1.5347837.00,-6.63,6.32,3.64,0.02,-0.00,-0.04,-60.09,-38.43,-2.7247888.00,-6.57,6.45,3.46,0.02,0.01,-0.04,-60.09,-38.43,-2.7247939.00,-6.68,6.39,3.65,0.07,0.03,-0.06,-58.69,-38.43,-2.3847990.00,-7.02,6.56,3.82,0.51,0.33,0.01,-58.69,-38.43,-2.3848042.00,-7.03,6.76,3.33,0.34,0.63,-0.15,-58.69,-38.43,-2.3848093.00,-6.32,5.75,3.48,0.76,1.10,-0.29,-60.09,-38.43,-0.3448144.00,-6.70,7.35,0.99,0.81,1.08,-0.12,-60.09,-38.43,-0.3448196.00,-7.40,6.05,0.60,-0.31,0.34,-0.44,-61.85,-35.26,7.1348247.00,-7.12,6.00,1.18,0.09,0.30,-0.33,-61.85,-35.26,7.1348298.00,-7.76,6.29,1.55,0.26,0.14,-0.27,-60.44,-34.55,8.8348349.00,-8.61,6.22,1.84,0.26,0.27,-0.18,-60.44,-34.55,8.8348401.00,-7.56,6.13,1.17,0.95,0.58,-0.02,-60.44,-34.55,8.8348452.00,-8.23,6.15,-0.42,0.36,0.15,0.08,-62.38,-35.08,12.4048503.00,-7.96,6.02,0.36,0.23,-0.00,0.06,-62.38,-35.08,12.4048554.00,-7.94,6.28,-0.00,0.92,0.30,0.08,-60.62,-34.03,14.1048606.00,-7.84,6.48,-0.60,1.02,0.43,-0.08,-60.62,-34.03,14.1048657.00,-8.49,6.47,-2.14,2.07,0.64,-0.15,-60.62,-34.03,14.1048708.00,-7.40,5.84,-1.78,3.71,0.79,-0.15,-60.80,-31.73,19.0248760.00,-8.24,7.93,-2.01,1.91,0.51,-1.08,-60.80,-31.73,19.0248811.00,-6.91,6.53,-4.18,4.35,1.33,-2.99,-57.46,-18.16,27.0148862.00,-6.42,4.69,-5.37,4.35,0.61,-4.28,-57.46,-18.16,27.0148913.00,-6.47,-3.47,1.24,4.35,-0.76,-4.34,-57.46,-18.16,27.0148965.00,-4.28,-6.93,0.62,4.35,-0.78,-4.34,-43.58,27.15,3.7449016.00,-0.17,-11.55,2.09,4.35,-2.20,-4.29,-43.58,27.15,3.7449068.00,-0.22,-13.22,5.22,4.35,-3.01,-1.67,-18.63,25.39,-26.5049119.00,-0.84,-8.92,11.10,4.35,-1.60,2.88,-18.63,25.39,-26.5049170.00,-2.54,-2.64,10.78,1.93,1.23,4.29,-21.79,0.00,-37.3749222.00,-3.16,-0.88,8.31,0.59,1.97,3.77,-21.79,0.00,-37.3749273.00,-4.60,0.63,8.15,0.87,2.92,2.75,-21.79,0.00,-37.3749324.00,-6.37,2.17,5.58,-0.13,2.75,1.91,-38.66,-10.58,-35.3349376.00,-7.60,2.00,3.78,-0.40,1.66,0.17,-38.66,-10.58,-35.3349427.00,-8.17,0.99,4.35,-0.99,0.87,-0.70,-38.66,-10.58,-35.3349478.00,-8.10,-0.72,4.33,-0.77,0.69,-1.18,-45.68,-9.52,-31.5949530.00,-8.56,-0.80,4.59,-0.50,0.44,-1.64,-45.68,-9.52,-31.5949581.00,-8.49,-1.29,3.97,-4.30,0.40,-2.52,-45.86,-1.59,-28.3749633.00,-6.29,-4.50,3.10,-3.33,0.67,-3.23,-45.86,-1.59,-28.3749684.00,-5.78,-6.51,0.20,-2.62,0.89,-3.31,-37.43,22.04,-16.4849735.00,-5.25,-10.01,-0.46,0.49,0.41,-2.56,-37.43,22.04,-16.4849786.00,-4.36,-12.07,0.77,1.08,-0.09,-1.20,-37.43,22.04,-16.4849838.00,-4.67,-10.02,3.20,1.46,0.15,1.85,-30.92,26.80,-18.3449889.00,-5.88,-5.89,3.63,1.04,0.50,2.37,-30.92,26.80,-18.3449941.00,-6.82,-4.08,3.67,0.77,1.05,0.91,-39.53,17.45,-20.2149992.00,-7.15,-5.38,2.26,-0.77,1.56,-0.18,-39.53,17.45,-20.2150044.00,-7.02,-6.43,1.94,-1.41,1.77,-0.57,-39.53,17.45,-20.2150098.00,-6.40,-7.20,0.75,-2.89,2.25,-0.30,-43.40,20.63,-12.4050148.00,-5.79,-7.03,-0.63,-4.38,2.64,0.25,-43.40,20.63,-12.4050198.00,-5.85,-3.20,-11.25,-4.26,1.07,1.37,-45.68,21.51,10.8750248.00,-7.43,-2.25,-4.64,-1.34,-0.30,0.60,-45.68,21.51,10.8750298.00,-6.59,-6.13,-5.49,0.62,0.91,-0.07,-45.68,21.51,10.8750347.00,-6.70,-4.88,-5.09,-0.79,0.51,0.39,-48.14,17.98,16.9950397.00,-5.92,-4.39,-6.15,-2.50,1.20,0.85,-48.14,17.98,16.9950448.00,-5.66,-3.76,-8.16,-4.38,0.80,1.46,-49.73,8.99,28.3750498.00,-5.66,2.22,-8.17,-4.38,-0.20,2.73,-49.73,8.99,28.3750548.00,-5.66,7.70,-9.15,-4.38,-1.02,2.48,-49.73,8.99,28.3750598.00,-5.73,7.56,-5.81,-1.48,-1.09,0.29,-53.59,-24.86,29.7250648.00,-4.85,4.88,-5.19,1.36,-0.22,0.25,-53.59,-24.86,29.7250698.00,-6.88,6.78,-6.65,1.54,-0.26,0.31,-56.40,-26.97,28.0350748.00,-6.48,4.00,-4.00,3.50,1.04,-0.88,-56.40,-26.97,28.0350798.00,-2.33,-0.38,-8.13,4.35,1.12,-1.19,-56.40,-26.97,28.0350848.00,-4.95,-2.07,-8.28,2.57,0.40,-0.12,-50.78,-7.58,33.8050898.00,-6.14,1.12,-8.59,-0.90,0.48,1.30,-50.78,-7.58,33.8050948.00,-5.23,3.46,-8.01,-2.15,-0.62,1.12,-50.96,-9.52,36.0150998.00,-5.42,5.04,-7.73,-3.42,-1.39,0.89,-50.96,-9.52,36.0151048.00,-6.10,5.92,-5.78,-4.38,-1.69,-0.07,-50.96,-9.52,36.0151098.00,-7.56,6.88,-3.02,-1.55,-0.94,-0.16,-57.46,-26.27,26.6751148.00,-7.56,9.23,-3.24,-0.93,-0.91,-0.52,-57.46,-26.27,26.6751198.00,-7.58,5.86,-2.94,2.25,-0.12,-1.65,-59.92,-25.21,22.5951248.00,-7.11,3.20,-3.77,2.61,0.11,-1.24,-59.92,-25.21,22.5951298.00,-7.87,3.33,-4.35,-0.82,-0.54,-0.34,-59.92,-25.21,22.5951348.00,-7.57,3.42,-3.41,-3.00,-0.82,-0.22,-60.97,-14.63,22.2551398.00,-9.89,6.98,-3.22,-4.38,-1.20,0.21,-60.97,-14.63,22.2551448.00,-8.01,6.35,0.46,-0.38,-0.29,0.11,-63.96,-23.62,15.6351498.00,-10.07,6.29,-2.38,1.90,0.15,-0.97,-63.96,-23.62,15.6351548.00,-8.23,2.72,-1.83,1.48,0.41,-0.80,-63.96,-23.62,15.6351598.00,-9.00,4.26,-2.98,-0.36,-0.92,0.16,-62.73,-18.16,19.1951648.00,-8.70,4.33,-0.56,-0.36,-0.23,-0.00,-62.73,-18.16,19.1951698.00,-8.09,4.43,-3.44,0.37,0.22,-0.46,-61.67,-18.51,16.4851748.00,-8.59,3.89,-3.35,0.14,0.08,-0.29,-61.67,-18.51,16.4851798.00,-8.74,3.82,-2.23,-0.22,-0.15,-0.11,-61.67,-18.51,16.4851848.00,-8.90,4.42,-2.87,-0.01,0.05,-0.03,-62.90,-17.63,17.6651898.00,-8.21,4.56,-3.23,0.15,0.12,-0.13,-62.90,-17.63,17.6651948.00,-8.78,3.53,-2.78,0.16,-0.09,-0.14,-63.08,-16.40,17.4951998.00,-8.60,4.62,-2.91,-0.00,0.00,0.05,-63.08,-16.40,17.4952048.00,-8.77,4.25,-2.99,0.10,0.12,-0.07,-63.08,-16.40,17.4952098.00,-9.15,3.67,-2.28,0.16,-0.15,-0.26,-61.32,-17.10,18.5152148.00,-8.47,4.47,-3.19,0.00,-0.00,-0.04,-61.32,-17.10,18.5152199.00,-8.80,3.93,-3.20,0.23,-0.02,-0.21,-60.62,-16.04,17.8352249.00,-8.82,3.46,-3.13,0.35,0.03,-0.10,-60.62,-16.04,17.8352299.00,-9.16,4.13,-3.00,0.13,-0.04,-0.15,-60.62,-16.04,17.8352349.00,-8.83,2.83,-3.45,0.32,0.05,-0.22,-61.50,-15.16,18.0052399.00,-8.93,3.55,-3.46,-0.08,-0.08,-0.16,-61.50,-15.16,18.0052449.00,-8.73,3.29,-3.26,0.06,-0.08,-0.22,-60.97,-12.52,15.4652499.00,-8.95,3.60,-2.67,-0.03,-0.06,-0.19,-60.97,-12.52,15.4652549.00,-8.61,3.21,-2.29,-0.16,-0.01,-0.23,-60.97,-12.52,15.4652599.00,-8.38,3.06,-3.71,-0.02,0.24,-0.27,-62.38,-10.05,16.8252649.00,-8.38,3.24,-3.25,0.04,0.30,-0.28,-62.38,-10.05,16.8252699.00,-8.79,3.27,-3.24,-0.05,0.12,0.07,-62.03,-9.70,18.8552749.00,-8.98,3.97,-3.32,-0.21,0.40,0.23,-62.03,-9.70,18.8552800.00,-8.48,3.13,-3.59,0.62,0.27,-0.02,-62.03,-9.70,18.8552850.00,-8.73,2.72,-3.98,0.50,0.20,0.06,-60.97,-11.81,18.5152900.00,-9.16,3.10,-3.54,-0.35,-0.29,0.37,-60.97,-11.81,18.5152950.00,-9.10,2.96,-4.45,-0.81,-0.59,0.42,-62.90,-13.05,18.6853000.00,-9.09,3.89,-2.81,-0.40,-0.63,0.32,-62.90,-13.05,18.6853050.00,-8.96,4.14,-2.72,0.07,-0.51,0.16,-62.90,-13.05,18.6853100.00,-9.24,3.81,-2.23,0.05,-0.42,0.03,-62.90,-13.05,18.6853150.00,-9.05,3.34,-1.90,-0.11,-0.36,-0.07,-62.90,-13.05,18.6853200.00,-8.93,3.56,-2.06,-0.07,-0.18,-0.01,-64.13,-14.63,12.4053250.00,-9.03,4.02,-1.92,-0.12,-0.07,-0.09,-64.13,-14.63,12.4053300.00,-9.07,3.87,-2.82,-0.14,0.11,-0.16,-64.13,-14.63,12.4053351.00,-8.70,4.38,-2.53,-0.23,0.22,-0.27,-63.26,-14.10,13.2553401.00,-8.69,4.63,-2.92,0.02,0.39,-0.06,-63.26,-14.10,13.2553451.00,-8.29,3.75,-2.18,0.16,0.41,-0.27,-62.90,-14.10,14.2753501.00,-8.95,3.79,-3.12,0.24,0.42,-0.01,-62.90,-14.10,14.2753551.00,-8.96,3.74,-2.88,0.37,0.37,-0.02,-62.90,-14.10,14.2753601.00,-8.63,3.37,-3.68,0.22,0.04,0.14,-61.32,-14.28,17.1653651.00,-9.37,3.42,-2.76,-0.08,-0.28,0.32,-61.32,-14.28,17.1653701.00,-8.50,3.77,-3.42,-0.38,-0.57,0.48,-61.32,-13.93,17.1653752.00,-8.90,4.14,-1.74,-0.22,-0.66,0.37,-61.32,-13.93,17.1653802.00,-9.18,4.01,-1.56,-0.05,-0.52,0.22,-61.32,-13.93,17.1653852.00,-8.79,3.95,-2.46,-0.10,-0.45,0.11,-62.73,-16.75,13.0853902.00,-8.98,4.10,-2.72,-0.07,-0.21,0.10,-62.73,-16.75,13.0853952.00,-9.04,4.15,-1.45,-0.16,-0.25,-0.03,-65.19,-17.45,12.0654002.00,-8.94,4.45,-1.37,-0.18,0.06,-0.14,-65.19,-17.45,12.0654052.00,-8.86,4.33,-2.18,-0.38,0.03,-0.14,-65.19,-17.45,12.0654103.00,-8.81,5.06,-1.79,-0.26,0.17,-0.10,-64.66,-16.22,11.2154153.00,-8.57,4.21,-2.26,0.08,0.37,-0.43,-64.66,-16.22,11.2154203.00,-8.74,4.23,-2.11,0.03,0.33,-0.21,-66.07,-15.87,14.2754253.00,-8.40,4.12,-1.93,0.07,0.38,-0.22,-66.07,-15.87,14.2754303.00,-8.89,3.97,-2.80,0.16,0.21,-0.07,-66.07,-15.87,14.2754353.00,-9.11,3.84,-2.67,0.20,0.17,-0.01,-63.61,-14.10,16.3154404.00,-8.66,3.98,-3.07,0.32,0.12,0.06,-63.61,-14.10,16.3154454.00,-8.87,3.12,-3.50,0.12,-0.10,0.18,-63.26,-12.69,16.9954505.00,-8.79,3.37,-2.73,-0.29,-0.69,0.44,-63.26,-12.69,16.9954555.00,-8.87,3.70,-1.96,-0.16,-0.54,0.44,-63.26,-12.69,16.9954605.00,-9.01,4.50,-0.77,-0.22,-0.65,0.42,-63.26,-17.63,14.6154655.00,-9.38,4.64,-1.38,-0.03,-0.39,0.24,-63.26,-17.63,14.6154706.00,-8.85,4.02,-1.45,0.02,-0.17,0.03,-65.19,-18.86,10.3654756.00,-8.63,4.27,-1.23,-0.02,-0.12,-0.02,-65.19,-18.86,10.3654806.00,-8.99,4.70,-0.97,-0.08,-0.08,0.04,-65.19,-18.86,10.3654856.00,-8.82,4.80,-0.38,-0.29,0.04,-0.05,-64.13,-20.27,10.3654907.00,-8.92,4.73,-1.55,-0.25,0.24,-0.09,-64.13,-20.27,10.3654957.00,-8.74,4.51,-1.98,0.07,0.44,-0.38,-65.19,-17.45,12.0655007.00,-7.74,3.96,-2.36,0.00,0.56,-0.47,-65.19,-17.45,12.0655057.00,-8.54,4.60,-1.84,0.15,0.43,-0.29,-65.19,-17.45,12.0655108.00,-8.84,3.71,-2.33,0.29,0.40,-0.23,-63.26,-16.92,13.9355158.00,-9.00,4.07,-2.39,0.21,0.20,-0.03,-63.26,-16.92,13.9355208.00,-8.90,3.63,-2.34,0.17,0.11,-0.00,-63.26,-15.16,14.9555258.00,-8.83,3.68,-1.92,0.03,-0.09,0.13,-63.26,-15.16,14.9555309.00,-8.74,3.77,-2.63,0.04,-0.05,0.19,-63.26,-15.16,14.9555359.00,-8.91,4.25,-2.09,-0.13,-0.34,0.27,-62.38,-14.63,16.1455409.00,-8.86,4.17,-1.48,0.04,-0.42,0.27,-62.38,-14.63,16.1455460.00,-8.79,4.40,-1.64,0.05,-0.40,0.25,-64.66,-17.28,13.9355510.00,-9.12,4.98,-2.34,0.02,-0.38,0.26,-64.66,-17.28,13.9355560.00,-9.28,4.25,-1.21,0.03,-0.27,0.10,-64.66,-17.28,13.9355610.00,-8.86,4.00,-1.26,-0.24,-0.31,0.04,-63.08,-20.27,10.3655661.00,-8.84,4.64,-1.72,-0.33,0.02,-0.08,-63.08,-20.27,10.3655711.00,-8.95,4.98,-1.19,-0.37,0.19,-0.15,-65.36,-19.39,10.8755761.00,-8.45,5.32,-1.68,-0.13,0.43,-0.25,-65.36,-19.39,10.8755812.00,-8.72,5.42,-1.73,0.07,0.64,-0.47,-65.36,-19.39,10.8755862.00,-8.58,4.88,-1.53,-0.01,0.36,-0.20,-63.08,-17.10,14.1055912.00,-8.77,4.10,-2.57,0.35,0.63,-0.41,-63.08,-17.10,14.1055963.00,-8.82,4.27,-2.41,0.12,0.20,-0.08,-64.66,-15.16,15.9756013.00,-8.95,3.60,-3.26,0.24,0.21,-0.06,-64.66,-15.16,15.9756063.00,-9.02,3.74,-2.49,0.07,-0.09,0.16,-64.66,-15.16,15.9756113.00,-9.01,3.85,-2.66,-0.05,-0.17,0.27,-63.61,-14.81,16.9956164.00,-8.89,3.98,-2.56,-0.23,-0.49,0.44,-63.61,-14.81,16.9956214.00,-9.17,4.65,-2.13,-0.03,-0.45,0.43,-62.55,-18.69,13.9356264.00,-9.08,4.53,-1.87,-0.08,-0.61,0.39,-62.55,-18.69,13.9356314.00,-8.80,4.68,-1.92,-0.05,-0.51,0.19,-62.55,-18.69,13.9356365.00,-8.92,4.69,-1.70,-0.13,-0.42,0.05,-64.84,-20.27,12.4056415.00,-8.83,4.46,-0.98,-0.24,-0.38,-0.04,-64.84,-20.27,12.4056466.00,-8.94,4.73,-1.04,-0.08,-0.14,0.04,-64.84,-18.86,9.6856516.00,-9.00,4.93,-0.95,-0.18,-0.05,0.02,-64.84,-18.86,9.6856566.00,-8.84,5.10,-0.43,-0.27,0.14,-0.10,-64.84,-18.86,9.6856617.00,-8.76,5.36,-1.48,-0.05,0.34,-0.29,-64.13,-18.16,10.3656667.00,-9.25,5.38,-0.84,-0.00,0.34,-0.35,-64.13,-18.16,10.3656717.00,-8.89,4.04,-1.33,0.12,0.48,-0.45,-65.19,-18.16,12.4056768.00,-8.84,4.09,-2.23,0.20,0.48,-0.30,-65.19,-18.16,12.4056818.00,-9.16,3.95,-2.09,0.22,0.37,-0.14,-63.96,-16.92,14.2756868.00,-8.53,3.68,-2.44,0.19,0.25,0.02,-63.96,-16.92,14.2756919.00,-9.06,3.76,-2.63,0.06,-0.00,0.27,-63.96,-16.92,14.2756969.00,-9.18,4.58,-2.57,-0.15,-0.21,0.38,-63.96,-16.92,15.9757020.00,-8.83,4.15,-2.52,-0.13,-0.33,0.32,-63.96,-16.92,15.9757070.00,-9.34,4.68,-1.42,-0.02,-0.70,0.44,-63.96,-16.92,15.9757120.00,-8.82,4.63,-2.03,-0.06,-0.55,0.19,-65.89,-18.51,12.0657171.00,-8.91,4.54,-0.42,-0.10,-0.52,0.13,-65.89,-18.51,12.0657221.00,-8.95,4.54,-0.48,-0.31,-0.48,0.01,-64.13,-20.27,10.3657272.00,-9.00,4.97,-1.00,-0.23,-0.28,0.01,-64.13,-20.27,10.3657322.00,-8.80,4.53,-0.66,-0.08,-0.16,-0.12,-63.96,-20.80,8.1557373.00,-8.86,4.61,-0.73,-0.26,0.08,-0.11,-63.96,-20.80,8.1557423.00,-8.92,5.92,-0.31,-0.27,0.20,-0.09,-63.96,-20.80,8.1557473.00,-8.88,6.08,-0.80,0.05,0.40,-0.33,-65.19,-20.63,10.0257524.00,-8.84,4.40,-1.47,-0.04,0.50,-0.33,-65.19,-20.63,10.0257574.00,-8.83,5.15,-1.75,-0.08,0.69,-0.37,-65.19,-20.63,10.0257625.00,-8.48,4.08,-1.28,0.34,0.39,-0.13,-64.31,-16.92,12.9157675.00,-8.67,3.59,-1.99,0.29,0.34,-0.10,-64.31,-16.92,12.9157725.00,-8.99,3.92,-2.17,0.16,-0.02,0.22,-63.78,-16.40,15.8057776.00,-8.72,4.14,-1.92,0.04,-0.15,0.27,-63.78,-16.40,15.8057826.00,-8.92,4.21,-1.73,-0.15,-0.48,0.41,-63.78,-16.40,15.8057877.00,-9.03,4.45,-1.51,-0.09,-0.59,0.35,-63.78,-16.40,15.8057927.00,-9.30,5.16,0.26,-0.11,-0.64,0.36,-63.78,-16.40,15.8057978.00,-8.57,4.29,-1.50,-0.01,-0.43,0.11,-65.19,-21.33,11.0458028.00,-8.85,4.63,-1.40,-0.05,-0.18,-0.06,-65.19,-21.33,11.0458079.00,-8.66,4.14,-0.90,-0.12,-0.22,-0.04,-65.72,-19.75,8.1558130.00,-8.83,5.11,0.20,-0.16,-0.28,0.13,-65.72,-19.75,8.1558180.00,-8.94,5.14,-0.45,-0.21,0.02,-0.15,-65.72,-19.75,8.1558231.00,-8.75,5.04,-0.49,-0.31,0.11,-0.11,-65.54,-20.98,7.3058281.00,-8.68,4.93,-0.63,-0.15,0.23,-0.20,-65.54,-20.98,7.3058332.00,-9.19,5.27,-0.19,-0.20,0.11,-0.28,-65.54,-20.98,7.3058382.00,-8.50,4.53,-0.21,-0.15,0.45,-0.43,-65.89,-18.86,10.0258433.00,-8.70,5.00,-0.11,0.02,0.66,-0.29,-65.89,-18.86,10.0258483.00,-8.36,4.11,-2.01,0.48,1.02,-0.49,-65.19,-17.81,11.3858534.00,-8.84,3.73,-1.81,0.27,0.36,-0.11,-65.19,-17.81,11.3858584.00,-8.66,3.60,-1.98,0.30,0.27,0.12,-64.13,-16.75,15.4658634.00,-9.24,4.10,-2.24,0.08,-0.06,0.33,-64.13,-16.75,15.4658685.00,-9.34,4.50,-1.69,-0.27,-0.61,0.47,-64.13,-16.75,15.4658735.00,-8.82,4.16,-1.34,-0.17,-0.67,0.30,-64.66,-19.04,12.9158786.00,-8.81,4.69,-1.29,-0.04,-0.59,0.31,-64.66,-19.04,12.9158837.00,-9.12,4.85,-0.25,-0.35,-0.66,0.19,-64.66,-19.04,12.9158887.00,-9.19,4.82,-0.16,-0.19,-0.43,0.08,-66.95,-20.63,8.6658938.00,-9.15,4.96,-0.43,-0.23,-0.25,0.04,-66.95,-20.63,8.6658988.00,-8.57,4.53,-0.05,-0.23,-0.18,-0.10,-66.42,-18.33,6.7959039.00,-8.77,4.97,0.35,-0.30,-0.15,-0.12,-66.42,-18.33,6.7959089.00,-8.49,4.35,-0.61,-0.21,0.22,-0.35,-66.59,-20.27,6.6259140.00,-8.81,4.79,0.41,-0.23,0.19,-0.27,-66.59,-20.27,6.6259190.00,-8.71,4.75,-0.68,-0.00,0.48,-0.43,-66.59,-20.27,6.6259241.00,-8.52,4.32,-0.58,0.11,0.70,-0.42,-66.42,-18.33,8.1559291.00,-9.03,4.45,-0.69,0.44,0.65,-0.25,-66.42,-18.33,8.1559342.00,-8.65,3.20,-1.80,0.41,0.45,-0.19,-67.30,-16.04,13.0859392.00,-9.08,4.07,-1.40,0.13,0.13,0.25,-67.30,-16.04,13.0859443.00,-9.08,4.05,-1.79,0.10,0.00,0.11,-67.30,-16.04,13.0859493.00,-8.91,4.08,-1.37,0.13,-0.15,0.23,-67.12,-17.63,13.9359544.00,-8.90,4.04,-1.40,0.01,-0.28,0.27,-67.12,-17.63,13.9359595.00,-9.24,4.32,-0.93,-0.07,-0.61,0.48,-66.07,-20.10,12.5759645.00,-8.82,3.84,-2.03,0.19,-0.45,0.29,-66.07,-20.10,12.5759696.00,-9.03,5.30,0.25,0.09,-0.54,0.37,-66.07,-20.10,12.5759746.00,-8.98,4.64,-0.01,-0.03,-0.35,0.04,-67.12,-20.80,8.4959797.00,-9.05,4.06,-0.11,-0.18,-0.46,-0.05,-67.12,-20.80,8.4959847.00,-9.22,4.76,0.55,-0.57,-0.13,0.02,-68.18,-21.51,6.1159898.00,-8.84,5.03,0.25,-0.42,0.11,-0.05,-68.18,-21.51,6.1159949.00,-8.45,4.31,-0.75,-0.18,0.23,-0.27,-68.18,-21.51,6.1159999.00,-8.96,5.00,-0.23,-0.22,0.28,-0.26,-67.47,-20.45,7.4760050.00,-9.19,5.30,0.41,-0.18,0.39,-0.41,-67.47,-20.45,7.4760100.00,-8.74,4.29,-0.50,-0.13,0.60,-0.54,-67.65,-18.86,9.0060151.00,-8.98,3.69,-0.97,-0.07,0.61,-0.41,-67.65,-18.86,9.0060202.00,-8.84,3.36,-1.57,0.36,0.55,-0.24,-67.65,-18.86,9.0060252.00,-8.95,3.70,-1.22,0.25,0.37,-0.00,-66.95,-16.40,11.0460303.00,-8.81,3.71,-1.45,0.14,0.06,0.27,-66.95,-16.40,11.0460353.00,-9.24,3.66,-1.19,0.06,-0.15,0.37,-67.12,-15.16,13.5960404.00,-8.58,3.90,-0.82,-0.06,-0.51,0.47,-67.12,-15.16,13.5960455.00,-9.31,4.36,-0.58,-0.08,-0.76,0.46,-67.12,-15.16,13.5960505.00,-9.23,4.22,-0.17,0.17,-0.70,0.23,-68.53,-18.69,10.1960556.00,-8.67,4.83,-0.88,0.03,-0.53,0.12,-68.53,-18.69,10.1960606.00,-9.00,4.45,0.67,-0.16,-0.43,-0.05,-68.35,-22.04,6.2860657.00,-9.02,4.13,0.85,-0.21,-0.43,-0.07,-68.35,-22.04,6.2860707.00,-9.21,4.59,1.61,-0.35,-0.12,-0.10,-68.35,-22.04,6.2860758.00,-9.08,4.53,0.51,-0.28,0.17,-0.22,-69.23,-20.80,4.7660809.00,-8.45,4.25,0.38,-0.36,0.25,-0.25,-69.23,-20.80,4.7660859.00,-8.78,4.34,0.36,-0.28,0.40,-0.31,-69.05,-19.92,5.9460910.00,-8.94,4.53,0.10,-0.51,0.63,-0.35,-69.05,-19.92,5.9460960.00,-8.62,4.33,0.04,-0.04,0.78,-0.45,-69.05,-19.92,5.9461011.00,-8.85,3.48,-0.36,0.05,0.56,-0.23,-67.30,-17.81,10.3661062.00,-9.04,3.38,-0.99,0.18,0.26,-0.01,-67.30,-17.81,10.3661112.00,-9.02,3.59,-1.25,0.23,0.13,0.25,-66.95,-15.34,13.7661163.00,-9.69,3.95,-0.91,0.07,-0.14,0.32,-66.95,-15.34,13.7661213.00,-9.11,4.16,-0.75,-0.03,-0.25,0.29,-66.95,-15.34,13.7661264.00,-8.82,3.94,-1.39,-0.15,-0.43,0.45,-68.18,-19.04,12.9161314.00,-9.33,4.75,-0.71,-0.13,-0.66,0.44,-68.18,-19.04,12.9161365.00,-8.94,3.95,0.43,0.10,-0.64,0.00,-68.35,-19.57,9.6861416.00,-8.96,4.54,-0.05,-0.16,-0.57,-0.07,-68.35,-19.57,9.6861466.00,-9.02,3.99,1.17,-0.29,-0.43,-0.01,-68.53,-20.10,7.1361517.00,-8.94,4.53,0.52,-0.32,-0.19,0.03,-68.53,-20.10,7.1361568.00,-8.41,4.45,0.61,-0.17,-0.08,-0.05,-68.53,-20.10,7.1361618.00,-8.94,4.59,1.30,-0.23,0.02,0.06,-69.23,-20.45,5.1061669.00,-8.64,4.66,0.61,-0.15,0.17,-0.12,-69.23,-20.45,5.1061720.00,-8.36,4.38,0.55,-0.03,0.01,0.08,-69.23,-20.45,5.1061770.00,-8.74,3.85,1.19,0.24,0.07,0.28,-69.41,-19.92,6.9661821.00,-10.72,3.82,1.32,0.15,0.34,0.89,-69.41,-19.92,6.9661872.00,-8.09,8.59,-1.78,-0.19,0.62,1.15,-68.18,-24.33,9.1761922.00,-7.52,5.15,-0.37,-0.03,0.15,-0.01,-68.18,-24.33,9.1761973.00,-7.81,5.41,-0.33,-0.07,0.08,-0.02,-67.47,-26.44,9.1762024.00,-8.70,5.79,0.20,-0.09,0.06,0.05,-67.47,-26.44,9.1762075.00,-8.48,5.24,0.20,0.07,0.13,0.00,-67.47,-26.44,9.1762125.00,-8.85,5.50,0.78,-0.38,0.33,0.12,-67.30,-27.68,9.3462176.00,-8.34,5.80,-0.35,-0.22,0.75,0.14,-67.30,-27.68,9.3462227.00,-9.00,6.19,0.24,0.35,1.01,-0.32,-67.47,-28.91,14.2762278.00,-9.15,5.11,0.50,-0.33,1.68,-0.72,-67.47,-28.91,14.2762328.00,-7.59,7.21,-1.71,-0.65,1.96,-0.87,-67.47,-28.91,14.2762379.00,-7.59,5.42,-3.56,0.39,1.70,-1.69,-65.72,-25.03,24.1262430.00,-8.54,1.71,-3.72,1.35,0.75,-1.81,-65.72,-25.03,24.1262480.00,-9.06,2.82,-4.36,0.69,0.02,-0.63,-61.50,-10.93,29.5562531.00,-9.00,3.30,-1.79,-0.36,-0.21,-0.14,-61.50,-10.93,29.5562582.00,-8.36,5.05,-3.45,-0.09,-0.37,0.09,-61.50,-10.93,29.5562633.00,-8.74,1.84,-1.46,0.48,-0.35,-0.59,-62.90,-10.58,25.4862683.00,-9.46,2.32,-2.09,0.64,-0.26,-0.41,-62.90,-10.58,25.4862734.00,-9.31,0.88,-2.37,0.62,0.18,-0.48,-62.90,-7.76,25.1462785.00,-8.34,1.39,-3.87,0.03,0.35,0.06,-62.90,-7.76,25.1462835.00,-7.80,2.40,-4.71,0.04,0.24,0.63,-62.90,-7.76,25.1462886.00,-9.34,-0.13,-3.32,0.14,0.03,0.70,-62.73,-7.58,24.2962937.00,-7.23,3.26,-4.37,-0.80,0.17,2.26,-62.73,-7.58,24.2962987.00,-7.71,3.11,-2.86,-0.32,-0.00,1.90,-61.50,-18.69,24.4663038.00,-6.90,7.28,-5.27,-0.48,-0.25,1.27,-61.50,-18.69,24.4663089.00,-8.60,3.43,-3.33,0.29,-0.23,0.41,-61.50,-18.69,24.4663140.00,-8.85,4.02,-4.37,-0.38,-0.17,0.35,-62.03,-24.15,23.9563190.00,-7.78,5.38,-4.26,-0.32,-0.35,0.35,-62.03,-24.15,23.9563241.00,-8.52,5.08,-3.07,0.72,0.26,-0.09,-63.43,-25.56,22.5963292.00,-7.85,5.56,-5.28,0.31,0.05,0.33,-63.43,-25.56,22.5963343.00,-9.09,7.22,-3.12,-0.68,-0.56,0.60,-63.43,-25.56,22.5963394.00,-6.81,6.19,-2.54,0.41,0.08,0.06,-62.20,-26.09,22.4263445.00,-7.35,5.09,-3.21,0.60,-0.18,-0.38,-62.20,-26.09,22.4263495.00,-7.57,4.76,-2.65,0.42,-0.32,-0.19,-61.67,-26.62,23.2763546.00,-7.85,5.58,-3.38,0.04,-0.33,0.01,-61.67,-26.62,23.2763597.00,-8.57,5.59,-3.07,0.04,-0.34,-0.08,-61.67,-26.62,23.2763648.00,-8.49,5.08,-2.80,0.20,-0.08,-0.19,-63.43,-25.21,20.8963699.00,-8.14,5.10,-2.72,0.13,-0.10,-0.10,-63.43,-25.21,20.8963749.00,-8.29,5.14,-2.77,0.11,-0.03,-0.16,-63.26,-25.39,20.0463800.00,-8.38,4.55,-3.29,0.17,0.06,-0.15,-63.26,-25.39,20.0463851.00,-8.17,5.15,-3.20,-0.14,-0.05,0.12,-64.49,-25.56,20.2163902.00,-8.38,5.24,-2.98,-0.03,-0.06,-0.08,-64.49,-25.56,20.2163953.00,-8.46,5.03,-2.96,0.04,-0.04,-0.17,-64.49,-25.56,20.2164004.00,-8.28,4.81,-2.87,0.07,-0.01,-0.09,-64.84,-22.04,19.5364055.00,-8.04,4.95,-3.28,0.03,-0.01,0.00,-64.84,-22.04,19.5364105.00,-8.38,4.97,-3.09,0.00,-0.09,-0.04,-64.13,-24.15,18.8564156.00,-8.56,4.98,-2.80,-0.00,-0.09,-0.08,-64.13,-24.15,18.8564207.00,-8.22,4.59,-2.88,0.08,0.01,-0.08,-64.13,-24.15,18.8564258.00,-8.37,4.61,-2.83,-0.00,0.03,-0.03,-66.07,-22.92,21.0664308.00,-8.14,5.00,-2.98,-0.04,-0.00,-0.01,-66.07,-22.92,21.0664359.00,-8.39,4.93,-3.03,0.01,-0.03,-0.03,-63.78,-23.45,20.2164410.00,-8.35,4.75,-2.99,0.02,-0.02,-0.06,-63.78,-23.45,20.2164461.00,-8.35,4.57,-2.98,0.02,-0.02,-0.03,-63.78,-23.45,20.2164512.00,-8.33,5.10,-2.97,-0.05,-0.05,0.02,-64.84,-23.45,19.8764563.00,-8.27,4.94,-3.02,0.05,-0.05,-0.03,-64.84,-23.45,19.8764614.00,-8.34,4.89,-2.90,0.04,-0.11,-0.03,-65.36,-21.86,21.7464664.00,-8.43,4.72,-2.78,0.06,-0.09,-0.08,-65.36,-21.86,21.7464715.00,-8.59,4.63,-2.79,0.04,0.04,-0.03,-65.36,-21.86,21.7464766.00,-8.35,4.81,-2.82,-0.02,-0.02,-0.02,-64.84,-22.04,19.1964817.00,-8.33,4.78,-2.95,0.05,0.01,-0.05,-64.84,-22.04,19.1964868.00,-8.48,4.74,-2.98,0.00,-0.02,-0.06,-66.42,-22.21,19.3664919.00,-8.26,4.66,-2.95,0.01,-0.01,-0.01,-66.42,-22.21,19.3664970.00,-8.38,4.74,-2.76,0.03,-0.04,-0.06,-66.42,-22.21,19.3665021.00,-8.44,4.68,-2.86,0.05,-0.02,-0.10,-64.31,-22.21,19.7065072.00,-8.37,4.37,-2.84,0.08,0.02,-0.08,-64.31,-22.21,19.7065123.00,-8.33,4.53,-3.00,0.02,-0.02,-0.02,-65.89,-22.04,20.2165173.00,-8.45,4.60,-2.82,-0.00,-0.04,-0.03,-65.89,-22.04,20.2165224.00,-8.56,4.67,-2.90,-0.01,-0.04,-0.03,-65.89,-22.04,20.2165275.00,-8.53,4.61,-2.86,0.03,-0.03,-0.05,-65.01,-22.21,21.0665326.00,-8.37,4.53,-2.89,0.00,-0.03,-0.01,-65.01,-22.21,21.0665377.00,-8.59,4.60,-2.85,-0.02,-0.05,-0.02,-65.19,-22.39,19.5365428.00,-8.52,4.49,-2.88,0.03,-0.01,-0.04,-65.19,-22.39,19.5365479.00,-8.42,4.50,-2.88,0.01,-0.02,-0.01,-65.19,-22.39,19.5365530.00,-8.41,4.60,-2.85,0.01,-0.05,-0.03,-65.54,-22.04,20.5565581.00,-8.56,4.56,-2.86,0.04,-0.05,-0.03,-65.54,-22.04,20.5565632.00,-8.52,4.50,-2.83,0.04,-0.00,-0.03,-65.89,-23.09,19.5365683.00,-8.59,4.49,-2.89,-0.00,-0.02,-0.03,-65.89,-23.09,19.5365734.00,-8.80,4.75,-2.88,0.00,0.02,0.02,-65.54,-21.68,18.5165784.00,-8.53,4.88,-3.14,0.02,0.04,0.12,-65.54,-21.68,18.5165835.00,-8.02,4.99,-3.11,-1.03,-0.64,0.70,-65.54,-21.68,18.5165886.00,-7.53,6.20,-1.31,-3.90,-1.90,1.25,-64.49,-24.86,16.8265937.00,-7.51,7.12,1.93,-4.38,-2.84,0.63,-64.49,-24.86,16.8265988.00,-7.22,5.23,5.79,-4.28,-2.20,-0.68,-64.49,-28.03,-5.2766039.00,-6.62,3.78,6.03,-0.89,-0.80,-0.61,-64.49,-28.03,-5.2766090.00,-7.66,4.10,3.34,-0.53,-0.37,-0.47,-64.49,-28.03,-5.2766141.00,-7.42,3.80,4.90,-1.92,-1.12,-0.72,-62.20,-22.92,-12.9166192.00,-6.98,1.97,6.57,-3.35,-1.04,-1.18,-62.20,-22.92,-12.9166243.00,-6.78,0.21,6.42,-2.13,-0.45,-1.02,-59.04,-10.93,-17.3266294.00,-6.95,-0.37,6.43,-1.78,-0.15,-0.57,-59.04,-10.93,-17.3266345.00,-6.93,-0.66,5.76,-2.55,-0.15,-0.69,-59.04,-10.93,-17.3266396.00,-7.14,-1.53,6.83,-3.18,0.25,-0.76,-58.51,-0.18,-18.8566447.00,-6.07,-3.84,6.68,-4.38,0.72,-1.49,-58.51,-0.18,-18.8566498.00,-5.50,-5.76,4.64,-4.38,1.55,-1.01,-55.88,15.16,-2.7266549.00,-5.78,-6.56,-0.23,-4.38,2.04,-0.36,-55.88,15.16,-2.7266600.00,-6.01,-8.03,-6.65,-4.38,1.04,0.33,-55.88,15.16,-2.7266651.00,-6.92,-5.37,-1.85,-2.94,-0.14,0.70,-51.83,10.05,26.3366702.00,-10.00,0.40,-7.62,-2.71,0.55,0.59,-51.83,10.05,26.3366753.00,-5.84,-7.20,-1.55,-1.45,0.23,-1.51,-53.06,0.35,30.2366804.00,-5.98,-4.73,-7.07,-4.38,0.93,-0.90,-53.06,0.35,30.2366855.00,-3.62,-2.91,-5.10,-4.22,0.29,-0.33,-51.48,-10.05,36.1866906.00,-4.58,-3.29,-11.66,-4.38,1.33,-0.59,-51.48,-10.05,36.1866957.00,-5.62,2.15,-12.07,-0.80,0.31,1.59,-51.48,-10.05,36.1867008.00,-5.23,-0.40,-4.97,0.42,1.06,0.05,-49.37,-20.98,40.2667059.00,-3.40,2.15,-9.43,-1.23,2.18,-0.84,-49.37,-20.98,40.2667109.00,-2.89,-4.87,-9.11,0.61,1.52,-1.84,-42.52,-18.69,44.8467160.00,-2.46,-3.56,-9.74,-0.04,0.89,-0.49,-42.52,-18.69,44.8467211.00,-2.72,0.17,-9.75,-0.46,0.65,-0.23,-42.52,-18.69,44.8467262.00,-6.34,0.85,-11.31,0.35,0.39,-0.92,-37.60,-16.22,45.5267313.00,-1.43,-5.60,-10.79,1.98,0.95,-0.37,-37.60,-16.22,45.5267364.00,-1.95,-4.88,-9.45,0.25,-0.05,0.79,-37.60,-16.22,45.5267415.00,-2.27,-1.36,-8.49,-1.12,0.39,0.20,-33.91,-7.23,47.3967466.00,-1.79,-2.28,-10.04,-0.15,1.00,-0.69,-33.91,-7.23,47.3967517.00,-1.33,-3.04,-10.41,-0.40,0.35,-0.36,-32.51,-11.11,46.0367568.00,-0.69,-2.61,-9.00,-0.41,0.38,-0.59,-32.51,-11.11,46.0367619.00,-0.45,-3.33,-10.36,-0.84,0.68,-0.44,-30.40,-11.81,48.7567670.00,-0.07,-0.56,-10.59,-1.41,0.08,-0.19,-30.40,-11.81,48.7567721.00,-0.17,-1.69,-9.04,-0.37,0.40,-0.49,-30.40,-11.81,48.7567772.00,0.32,-0.62,-9.71,-1.13,0.53,0.10,-27.41,-17.98,47.5667823.00,0.63,1.06,-10.43,-1.73,0.49,0.19,-27.41,-17.98,47.5667874.00,0.76,2.35,-14.25,-0.88,0.09,-0.04,-24.60,-23.62,47.2267925.00,0.29,2.26,-9.01,-0.46,-0.30,-0.27,-24.60,-23.62,47.2267976.00,0.81,1.33,-10.13,-0.10,-0.40,-0.21,-24.60,-23.62,47.2268027.00,0.41,0.24,-9.91,0.25,-0.25,-0.41,-27.41,-26.44,46.5468079.00,0.50,0.58,-9.98,0.17,-0.02,-0.03,-27.41,-26.44,46.5468129.00,0.01,0.83,-10.73,-0.50,-0.09,0.05,-26.88,-26.27,47.3968180.00,-0.36,1.52,-10.11,-0.26,-0.14,0.03,-26.88,-26.27,47.3968232.00,-0.26,0.64,-10.36,0.85,-0.09,-0.22,-28.64,-25.56,46.7168283.00,0.08,0.66,-10.43,0.84,-0.21,-0.13,-28.64,-25.56,46.7168334.00,-0.01,0.38,-10.25,0.26,-0.12,-0.16,-28.64,-25.56,46.7168385.00,-0.03,0.11,-10.16,0.23,-0.06,-0.11,-29.17,-21.86,47.5668436.00,-0.13,-0.01,-10.17,0.62,-0.14,-0.07,-29.17,-21.86,47.5668487.00,-0.17,-0.35,-10.00,0.17,-0.05,-0.04,-29.17,-21.86,47.5668538.00,-0.12,0.06,-10.40,0.22,-0.07,-0.04,-28.29,-20.98,47.3968589.00,-0.21,-0.34,-10.16,-0.01,-0.01,-0.03,-28.29,-20.98,47.3968640.00,-0.24,-0.32,-10.19,-0.01,-0.01,-0.01,-29.34,-19.57,47.7368692.00,-0.20,-0.35,-10.19,-0.00,-0.01,-0.01,-29.34,-19.57,47.7368743.00,-0.20,-0.38,-10.19,0.00,-0.01,-0.01,-28.64,-20.63,47.7368794.00,-0.20,-0.36,-10.18,0.00,-0.01,-0.01,-28.64,-20.63,47.7368845.00,-0.19,-0.36,-10.19,0.00,-0.01,-0.01,-28.64,-20.63,47.7368896.00,-0.17,-0.39,-10.31,0.00,-0.01,-0.01,-29.87,-20.10,47.9068947.00,-0.29,-0.25,-10.20,-0.00,-0.01,-0.01,-29.87,-20.10,47.9068998.00,-0.22,-0.31,-10.24,-0.01,-0.01,-0.01,-29.34,-19.57,49.4369050.00,-0.22,-0.32,-10.17,-0.00,-0.01,-0.01,-29.34,-19.57,49.4369101.00,-0.16,-0.38,-10.16,0.00,-0.01,-0.01,-29.34,-19.57,49.4369152.00,-0.17,-0.36,-10.17,0.00,-0.01,-0.01,-28.82,-20.10,48.2469203.00,-0.18,-0.38,-10.19,0.00,-0.01,-0.01,-28.82,-20.10,48.2469254.00,-0.20,-0.34,-10.20,0.00,-0.01,-0.01,-28.82,-19.75,47.9069305.00,-0.19,-0.35,-10.22,-0.00,-0.01,-0.01,-28.82,-19.75,47.9069356.00,-0.19,-0.37,-10.20,-0.00,-0.01,-0.01,-28.82,-19.75,47.9069408.00,-0.19,-0.36,-10.21,0.00,-0.01,-0.01,-28.82,-18.69,47.5669459.00,-0.19,-0.35,-10.18,0.00,-0.01,-0.01,-28.82,-18.69,47.5669510.00,-0.21,-0.34,-10.22,0.00,-0.01,-0.01,-30.05,-20.27,48.4169561.00,-0.21,-0.33,-10.19,0.00,-0.01,-0.01,-30.05,-20.27,48.4169612.00,-0.17,-0.37,-10.22,0.00,-0.01,-0.01,-28.82,-19.75,47.5669663.00,-0.18,-0.37,-10.20,-0.00,-0.01,-0.01,-28.82,-19.75,47.5669714.00,-0.19,-0.35,-10.17,-0.00,-0.01,-0.01,-28.82,-19.75,47.5669765.00,-0.19,-0.35,-10.20,0.00,-0.01,-0.01,-29.34,-20.63,48.4169817.00,-0.19,-0.35,-10.20,0.00,-0.01,-0.01,-29.34,-20.63,48.4169868.00,-0.18,-0.37,-10.18,-0.00,-0.01,-0.01,-29.34,-20.63,48.4169919.00,-0.19,-0.37,-10.19,0.00,-0.01,-0.01,-29.34,-19.57,49.0969970.00,-0.21,-0.34,-10.26,-0.00,-0.01,-0.01,-29.34,-19.57,49.0970021.00,-0.18,-0.37,-10.19,-0.00,-0.01,-0.01,-29.17,-20.10,49.6070072.00,-0.22,-0.36,-10.18,0.00,-0.01,-0.01,-29.17,-20.10,49.6070124.00,-0.16,-0.36,-10.20,0.00,-0.01,-0.01,-29.87,-18.69,49.2670175.00,-0.21,-0.35,-10.19,-0.00,-0.01,-0.01,-29.87,-18.69,49.2670226.00,0.40,-0.33,-10.38,-0.20,0.05,0.33,-29.87,-18.69,49.2670277.00,-2.13,0.34,-11.12,-0.03,1.46,0.77,-29.34,-20.63,49.4370328.00,0.39,0.44,-10.55,-1.47,-0.44,-1.16,-29.34,-20.63,49.4370380.00,0.60,0.61,-10.55,-0.31,-0.11,-0.57,-28.64,-22.74,53.8470431.00,-0.16,0.45,-10.17,0.16,-0.15,0.17,-28.64,-22.74,53.8470482.00,0.21,0.29,-10.28,0.13,-0.19,-0.04,-28.64,-22.74,53.8470533.00,-0.24,0.22,-10.43,0.38,-0.19,0.30,-28.99,-23.09,54.8670584.00,-0.06,-0.17,-9.97,0.56,-0.09,0.42,-28.99,-23.09,54.8670636.00,-0.14,0.13,-10.21,0.11,-0.03,0.22,-31.45,-20.27,59.6270687.00,-0.15,-0.17,-10.12,0.16,-0.00,-0.07,-31.45,-20.27,59.6270738.00,-0.17,-0.07,-10.28,0.11,-0.03,0.02,-31.45,-20.27,59.6270789.00,-0.48,-0.33,-10.15,0.22,0.03,0.33,-30.92,-17.63,62.1770841.00,-0.30,-0.24,-10.15,-0.03,-0.01,0.02,-30.92,-17.63,62.1770892.00,0.10,-0.00,-10.30,-0.09,-0.12,-0.28,-31.28,-18.33,62.5170943.00,-0.31,-0.48,-10.10,0.23,-0.07,-0.07,-31.28,-18.33,62.5170994.00,-0.36,-0.22,-10.02,-0.23,-0.04,0.01,-29.34,-17.45,64.0371046.00,-0.17,-0.19,-10.20,-0.24,-0.03,-0.13,-29.34,-17.45,64.0371097.00,-0.45,0.23,-10.35,0.41,-0.11,-0.23,-29.34,-17.45,64.0371148.00,-0.41,-0.65,-10.02,0.40,-0.06,0.03,-31.45,-17.81,67.7771200.00,-0.57,-0.23,-9.87,-0.32,0.08,0.34,-31.45,-17.81,67.7771251.00,0.63,-0.02,-10.52,-0.77,0.06,0.22,-31.45,-17.81,67.7771302.00,-0.30,0.11,-10.34,0.21,-0.02,-0.24,-30.92,-20.10,59.4571354.00,-0.69,-0.13,-10.24,0.35,0.09,0.20,-30.92,-20.10,59.45