time,ax,ay,az,gx,gy,gz,mx,my,mz49.00,0.18,0.19,-10.19,-0.00,-0.01,-0.02,-28.82,-23.27,48.92100.00,0.17,0.21,-10.21,0.00,-0.01,-0.01,-27.41,-21.16,47.22151.00,0.17,0.19,-10.17,0.00,-0.01,-0.01,-27.41,-21.16,47.22202.00,0.17,0.20,-10.19,-0.00,-0.01,-0.02,-27.41,-21.16,47.22252.00,0.19,0.21,-10.22,0.01,-0.01,-0.01,-27.59,-22.04,47.39303.00,0.18,0.18,-10.19,0.00,-0.01,-0.01,-27.59,-22.04,47.39354.00,0.18,0.19,-10.21,-0.01,-0.01,-0.01,-27.24,-21.33,48.41404.00,0.16,0.18,-10.17,-0.00,-0.01,-0.01,-27.24,-21.33,48.41455.00,0.18,0.20,-10.22,-0.00,-0.01,-0.01,-28.46,-20.80,47.22506.00,0.17,0.19,-10.16,0.00,-0.02,-0.01,-28.46,-20.80,47.22556.00,0.17,0.20,-10.21,0.01,-0.01,-0.01,-28.46,-20.80,47.22607.00,0.20,0.23,-10.26,-0.01,-0.00,-0.02,-28.46,-21.51,47.90658.00,0.16,0.17,-10.19,0.00,-0.01,-0.02,-28.46,-21.51,47.90708.00,0.17,0.19,-10.19,-0.00,-0.00,-0.01,-28.82,-22.21,47.90759.00,0.19,0.22,-10.22,-0.00,-0.01,-0.01,-28.82,-22.21,47.90810.00,0.18,0.19,-10.19,-0.01,-0.00,-0.01,-28.82,-22.21,47.90860.00,0.18,0.20,-10.20,-0.00,-0.01,-0.01,-28.11,-22.21,46.54911.00,0.17,0.19,-10.21,0.00,-0.01,-0.01,-28.11,-22.21,46.54962.00,0.17,0.17,-10.21,0.00,-0.01,-0.01,-27.76,-21.86,46.881013.00,0.18,0.20,-10.21,0.00,-0.01,-0.01,-27.76,-21.86,46.881063.00,0.17,0.17,-10.18,-0.00,-0.01,-0.01,-27.76,-21.86,46.881114.00,0.17,0.19,-10.21,-0.00,-0.01,-0.01,-26.88,-20.98,46.371165.00,0.16,0.18,-10.21,0.00,-0.01,-0.01,-26.88,-20.98,46.371216.00,0.17,0.21,-10.22,0.00,-0.01,-0.01,-27.59,-22.39,48.071266.00,0.17,0.20,-10.19,0.00,-0.01,-0.01,-27.59,-22.39,48.071317.00,0.18,0.20,-10.19,-0.00,-0.01,-0.01,-27.59,-22.39,48.071368.00,0.17,0.18,-10.20,0.00,-0.01,-0.01,-27.59,-21.68,46.711419.00,0.17,0.20,-10.20,0.00,-0.01,-0.01,-27.59,-21.68,46.711470.00,0.16,0.18,-10.17,0.00,-0.01,-0.02,-28.64,-20.63,47.391520.00,0.19,0.22,-10.21,-0.00,-0.01,-0.02,-28.64,-20.63,47.391571.00,0.16,0.18,-10.21,-0.00,-0.01,-0.01,-28.11,-21.86,47.221622.00,0.20,0.21,-10.23,0.01,-0.01,-0.01,-28.11,-21.86,47.221673.00,0.23,0.24,-10.20,0.00,-0.00,0.01,-28.11,-21.86,47.221724.00,0.19,0.20,-10.21,0.00,-0.01,0.02,-29.17,-21.16,46.541774.00,-0.02,0.36,-10.16,0.02,-0.00,0.05,-29.17,-21.16,46.541825.00,0.15,0.15,-10.21,0.04,-0.03,-0.06,-29.17,-21.16,46.541876.00,0.22,0.07,-10.19,0.01,-0.01,-0.04,-28.29,-22.74,46.371927.00,0.26,0.07,-10.18,0.01,-0.00,-0.07,-28.29,-22.74,46.371978.00,0.31,0.06,-10.21,-0.02,-0.01,-0.08,-27.41,-21.51,46.202028.00,0.18,0.13,-10.19,-0.01,0.01,-0.02,-27.41,-21.51,46.202079.00,0.20,0.19,-10.24,0.01,-0.01,-0.01,-27.41,-21.51,46.202130.00,0.17,0.09,-10.15,0.01,-0.02,-0.01,-27.06,-20.80,45.862181.00,0.17,0.10,-10.16,0.01,-0.01,-0.00,-27.06,-20.80,45.862232.00,0.18,0.11,-10.19,0.01,-0.01,-0.00,-28.82,-20.45,45.862282.00,0.17,0.14,-10.19,0.00,-0.01,-0.01,-28.82,-20.45,45.862333.00,0.16,0.14,-10.23,-0.02,-0.01,-0.01,-27.59,-21.68,47.392384.00,0.18,0.18,-10.23,0.00,-0.01,-0.01,-27.59,-21.68,47.392435.00,0.17,0.17,-10.20,0.00,-0.01,-0.02,-27.59,-21.68,47.392486.00,0.28,0.25,-10.25,0.02,-0.00,-0.04,-27.76,-20.45,47.222537.00,0.11,0.10,-10.22,-0.02,-0.00,-0.04,-27.76,-20.45,47.222587.00,0.04,0.25,-10.33,0.05,0.01,0.05,-26.71,-21.51,47.222638.00,0.21,-0.05,-10.20,-0.02,-0.01,0.09,-26.71,-21.51,47.222689.00,-0.48,0.07,-9.88,-0.08,-0.03,-0.06,-26.71,-21.51,47.222740.00,0.37,0.09,-10.23,-0.02,-0.00,-0.06,-26.53,-21.68,46.372791.00,0.15,0.26,-10.28,0.08,0.09,-0.01,-26.53,-21.68,46.372842.00,0.15,-0.04,-10.05,0.05,0.02,0.01,-28.11,-20.45,45.522893.00,0.08,0.08,-10.22,-0.10,-0.04,0.02,-28.11,-20.45,45.522943.00,0.21,0.04,-10.10,-0.07,0.04,-0.22,-28.11,-20.45,45.522994.00,0.05,0.47,-10.27,-0.02,0.02,-0.13,-26.71,-21.86,46.543045.00,0.23,0.17,-10.22,-0.00,-0.00,-0.36,-26.71,-21.86,46.543096.00,-0.02,0.38,-10.13,0.00,-0.10,-0.30,-29.52,-20.80,47.223147.00,0.17,0.07,-10.17,-0.02,-0.03,-0.19,-29.52,-20.80,47.223198.00,0.11,0.17,-10.16,-0.00,-0.01,-0.01,-29.52,-20.80,47.223249.00,0.16,0.19,-10.22,-0.00,-0.01,-0.01,-27.94,-21.33,46.033300.00,0.17,0.17,-10.17,0.00,-0.01,-0.01,-27.94,-21.33,46.033351.00,0.19,0.13,-10.20,-0.00,-0.01,-0.01,-27.59,-20.63,46.713402.00,0.19,0.15,-10.20,-0.00,-0.01,-0.01,-27.59,-20.63,46.713453.00,0.19,0.13,-10.20,0.00,-0.01,-0.01,-27.59,-20.98,47.393503.00,0.19,0.16,-10.21,-0.00,-0.01,-0.01,-27.59,-20.98,47.393554.00,0.17,0.14,-10.19,0.00,-0.01,-0.01,-27.59,-20.98,47.393605.00,0.18,0.14,-10.20,0.00,-0.01,-0.01,-28.99,-21.33,46.033656.00,0.18,0.16,-10.20,-0.00,-0.01,-0.01,-28.99,-21.33,46.033707.00,0.20,0.13,-10.20,-0.00,-0.01,-0.01,-28.99,-21.33,46.033758.00,0.17,0.14,-10.18,-0.00,-0.01,-0.01,-28.46,-22.21,47.223809.00,0.17,0.16,-10.22,0.00,-0.01,-0.01,-28.46,-22.21,47.223860.00,0.17,0.13,-10.19,0.00,-0.01,-0.01,-27.59,-20.98,46.713911.00,0.19,0.19,-10.16,-0.00,-0.01,-0.01,-27.59,-20.98,46.713962.00,0.20,0.17,-10.20,-0.00,-0.01,-0.01,-28.29,-20.98,47.054013.00,0.17,0.14,-10.19,-0.00,-0.01,-0.01,-28.29,-20.98,47.054064.00,0.20,0.12,-10.18,0.00,-0.01,-0.01,-28.29,-20.98,47.054115.00,0.16,0.13,-10.18,-0.00,-0.01,-0.01,-27.94,-21.68,46.714166.00,0.20,0.15,-10.22,0.00,-0.01,-0.01,-27.94,-21.68,46.714217.00,0.17,0.14,-10.22,0.00,-0.01,-0.01,-28.11,-22.57,46.204268.00,0.19,0.15,-10.20,0.00,-0.01,-0.01,-28.11,-22.57,46.204319.00,0.19,0.14,-10.20,0.00,-0.01,-0.01,-28.11,-22.57,46.204370.00,0.18,0.16,-10.21,0.00,-0.01,-0.01,-26.88,-22.39,47.394421.00,1.44,-0.71,-10.96,0.01,-0.02,0.01,-26.88,-22.39,47.394472.00,-0.07,-1.39,-8.77,0.30,-0.17,1.14,-27.94,-22.39,47.734523.00,-0.91,2.86,-11.02,-0.11,-0.11,0.27,-27.94,-22.39,47.734574.00,0.03,-2.86,-6.16,-0.03,-0.85,-1.41,-27.94,-22.39,47.734625.00,0.39,3.59,-11.63,-1.99,1.07,0.15,-30.92,-22.21,46.204676.00,0.96,2.36,-9.65,-1.70,0.70,-3.51,-30.92,-22.21,46.204727.00,1.43,1.10,-9.88,-2.72,0.46,-2.49,-28.11,-28.56,45.184778.00,1.44,4.88,-14.69,-4.38,0.78,-1.70,-28.11,-28.56,45.184829.00,0.04,5.65,-8.47,-2.75,-1.71,-1.33,-28.11,-28.56,45.184880.00,-1.62,7.57,-8.63,-1.37,-0.61,-0.97,-35.49,-44.07,32.274931.00,-1.21,4.76,-4.41,0.34,-1.87,-1.48,-35.49,-44.07,32.274982.00,-2.63,6.11,-2.05,0.67,-0.62,0.07,-42.70,-46.01,28.035033.00,-2.59,9.60,-8.90,-0.58,0.19,-0.91,-42.70,-46.01,28.035084.00,-1.95,5.62,-6.26,-0.27,-0.55,-1.79,-42.70,-46.01,28.035135.00,-2.86,6.33,-8.91,-0.01,0.65,-0.02,-46.74,-45.13,25.825186.00,-3.54,11.21,-9.28,-1.02,-0.48,-0.25,-46.74,-45.13,25.825237.00,-3.60,4.76,-4.76,-0.80,-0.77,-1.71,-50.60,-41.96,22.765288.00,-4.67,6.58,-6.24,-1.38,-0.38,-0.76,-50.60,-41.96,22.765339.00,-5.55,8.04,-4.21,-1.28,-0.62,-0.98,-54.47,-41.61,17.665390.00,-5.63,6.95,-2.79,0.15,-0.24,-0.94,-54.47,-41.61,17.665441.00,-5.60,6.40,-4.26,1.08,0.49,-0.87,-54.47,-41.61,17.665493.00,-5.62,6.03,-7.66,0.72,0.23,-0.80,-56.05,-37.20,18.515544.00,-5.78,5.17,-4.80,0.42,-0.49,-0.77,-56.05,-37.20,18.515595.00,-5.94,5.14,-6.64,0.60,0.11,-0.49,-58.51,-31.91,21.575646.00,-6.13,4.68,-5.53,0.54,-0.25,-0.41,-58.51,-31.91,21.575697.00,-6.43,4.75,-6.52,-1.06,-0.20,-0.41,-58.51,-31.91,21.575748.00,-6.51,4.73,-6.20,-1.30,-0.46,-0.13,-59.21,-31.20,19.535799.00,-7.15,7.22,-4.35,1.03,0.03,-0.24,-59.21,-31.20,19.535850.00,-6.96,4.81,-6.17,2.46,0.56,-0.90,-59.39,-29.27,20.045901.00,-6.32,1.03,-7.35,1.71,0.30,-0.98,-59.39,-29.27,20.045952.00,-7.19,4.15,-5.44,0.13,-0.45,0.53,-59.39,-29.27,20.046003.00,-7.20,3.96,-6.44,-0.18,-0.37,-0.08,-61.15,-25.03,21.746054.00,-7.53,3.35,-5.16,-0.10,-0.34,-0.25,-61.15,-25.03,21.746106.00,-7.90,4.24,-5.50,0.07,0.02,-0.45,-60.97,-24.51,21.576157.00,-7.66,1.56,-4.06,1.05,-0.02,-0.88,-60.97,-24.51,21.576208.00,-8.75,2.37,-4.46,0.51,0.83,-0.65,-60.97,-24.51,21.576259.00,-9.99,2.68,-9.37,0.05,1.40,-0.87,-59.39,-19.39,22.086310.00,-6.81,1.56,-8.27,-0.97,-2.38,-1.22,-59.39,-19.39,22.086361.00,-7.91,2.04,0.26,-0.57,-0.79,-1.07,-61.85,-16.22,20.386412.00,-5.71,0.57,-9.58,1.13,3.42,-0.73,-61.85,-16.22,20.386463.00,-4.75,-1.10,-8.42,0.17,2.18,-0.67,-61.85,-16.22,20.386514.00,-5.47,1.62,-7.51,-2.09,-1.66,1.35,-55.52,-9.87,29.896565.00,-7.95,5.16,-3.33,-0.52,-0.50,0.58,-55.52,-9.87,29.896616.00,-6.51,-0.29,-8.63,1.16,0.80,-1.37,-57.98,-16.57,26.846667.00,-6.84,0.62,-7.41,-0.22,0.44,-0.34,-57.98,-16.57,26.846719.00,-5.69,1.30,-8.44,1.61,1.33,-0.20,-54.82,-10.93,31.256770.00,-5.12,0.30,-9.75,2.56,1.04,-0.35,-54.82,-10.93,31.256821.00,-5.23,-0.45,-9.94,2.90,0.00,-0.93,-54.82,-10.93,31.256872.00,-5.44,-5.51,-7.44,3.03,-0.61,-0.94,-51.83,2.29,30.746923.00,-6.29,-5.58,-7.27,1.30,-0.26,-0.17,-51.83,2.29,30.746975.00,-5.61,-4.12,-7.60,0.65,0.00,0.17,-53.24,10.75,25.657026.00,-4.95,-4.22,-7.81,0.34,-0.07,0.41,-53.24,10.75,25.657077.00,-5.45,-2.21,-7.27,-0.44,-0.39,0.76,-53.24,10.75,25.657128.00,-5.86,-0.85,-7.31,0.44,-0.45,0.45,-53.77,7.40,25.147179.00,-5.91,-2.80,-5.42,1.48,-0.82,0.06,-53.77,7.40,25.147230.00,-6.72,-3.82,-4.91,1.04,-0.56,0.25,-54.82,9.52,18.007281.00,-7.75,-2.26,-5.41,-0.51,0.08,0.30,-54.82,9.52,18.007333.00,-6.23,-3.20,-9.07,0.19,0.29,0.00,-55.52,7.05,21.407384.00,-7.94,-2.96,-7.75,0.19,-0.29,-0.02,-55.52,7.05,21.407435.00,-6.63,-5.68,-4.39,0.92,-0.30,-0.71,-55.52,7.05,21.407486.00,-6.73,-5.86,-5.98,0.16,-0.10,-0.09,-55.35,8.64,16.487537.00,-6.61,-4.38,-6.48,-0.17,-0.03,0.10,-55.35,8.64,16.487588.00,-6.91,-4.10,-5.77,-0.00,-0.15,0.03,-55.35,8.64,16.487639.00,-6.63,-4.40,-5.61,-0.06,-0.14,-0.00,-54.82,9.52,18.347690.00,-6.70,-4.32,-5.70,-0.10,-0.26,0.06,-54.82,9.52,18.347742.00,-7.20,-4.46,-5.45,0.05,-0.41,0.10,-57.11,11.46,15.467793.00,-6.86,-4.56,-5.16,0.12,-0.06,0.01,-57.11,11.46,15.467844.00,-7.14,-4.56,-5.34,-0.09,0.14,0.21,-56.40,8.29,17.497895.00,-6.81,-3.82,-5.32,-0.26,-0.06,0.14,-56.40,8.29,17.497946.00,-7.07,-4.72,-5.35,-0.02,0.25,0.22,-56.40,8.29,17.497997.00,-7.78,-3.63,-5.98,-0.48,0.21,0.47,-57.46,7.93,16.148049.00,-7.47,-3.46,-5.57,-0.55,0.08,0.39,-57.46,7.93,16.148100.00,-7.52,-2.85,-6.63,-0.78,0.32,0.44,-58.16,4.05,18.178151.00,-7.47,-2.04,-7.00,-0.55,0.24,0.28,-58.16,4.05,18.178202.00,-6.98,-2.71,-6.13,0.12,-0.08,-0.04,-58.16,4.05,18.178253.00,-7.19,-2.82,-6.25,-0.18,0.21,0.12,-57.46,2.29,20.218304.00,-6.68,-2.39,-5.95,-0.21,0.41,0.06,-57.46,2.29,20.218356.00,-7.14,-2.97,-9.37,-0.26,0.67,0.38,-57.98,1.76,23.108407.00,-8.28,-0.76,-4.39,-0.08,-0.28,0.11,-57.98,1.76,23.108458.00,-6.94,-2.77,-8.44,-0.45,0.41,0.12,-57.98,1.76,23.108509.00,-7.24,-0.53,-8.71,-0.37,-0.01,0.28,-57.98,0.00,25.148561.00,-6.28,-3.67,-6.45,0.87,-0.43,-0.53,-57.98,0.00,25.148612.00,-6.09,-4.51,-6.20,0.19,-0.21,-0.17,-57.11,1.94,23.618663.00,-6.89,-1.56,-7.81,-0.47,-0.36,0.42,-57.11,1.94,23.618714.00,-7.52,-2.28,-5.83,0.34,-0.47,0.05,-58.86,1.23,21.238765.00,-7.68,-2.78,-5.82,0.08,-0.23,0.10,-58.86,1.23,21.238817.00,-7.53,-1.53,-6.82,-0.21,-0.05,0.17,-58.86,1.23,21.238868.00,-7.39,-2.40,-6.26,0.20,-0.07,-0.01,-59.57,-0.18,21.238919.00,-7.61,-2.12,-6.32,0.02,0.01,0.17,-59.57,-0.18,21.238970.00,-7.64,-1.70,-6.67,0.01,0.04,0.09,-59.57,-0.18,21.239022.00,-7.25,-2.49,-6.30,0.18,-0.02,-0.01,-59.04,-1.41,21.069073.00,-7.36,-2.38,-6.38,0.13,-0.03,0.05,-59.04,-1.41,21.069124.00,-7.64,-2.17,-6.05,0.16,-0.03,0.03,-60.09,-1.06,20.729175.00,-7.49,-2.10,-6.39,-0.01,0.13,-0.02,-60.09,-1.06,20.729227.00,-7.31,-2.32,-6.66,0.02,0.07,-0.08,-60.27,-0.53,21.919278.00,-7.39,-2.46,-6.50,0.03,0.07,-0.09,-60.27,-0.53,21.919329.00,-7.45,-2.44,-6.15,0.08,0.05,-0.10,-60.27,-0.53,21.919380.00,-7.09,-2.53,-6.60,-0.09,0.26,-0.09,-58.34,0.35,21.409432.00,-6.88,-2.38,-7.21,-0.12,0.17,-0.02,-58.34,0.35,21.409483.00,-7.19,-2.59,-6.29,0.09,0.03,0.01,-59.04,-0.35,24.129534.00,-8.11,-3.09,-6.41,-0.19,0.34,0.00,-59.04,-0.35,24.129585.00,-7.28,-2.85,-7.56,-0.55,0.51,-0.07,-59.04,-0.35,24.129637.00,-7.16,-2.68,-8.75,-0.16,-0.04,0.08,-57.98,0.35,25.489688.00,-7.72,-2.17,-8.75,0.22,-0.37,-0.01,-57.98,0.35,25.489739.00,-7.62,-2.89,-6.88,0.70,-0.75,-0.32,-59.57,0.18,22.259790.00,-7.37,-3.56,-5.91,0.77,-0.75,-0.41,-59.57,0.18,22.259842.00,-7.48,-3.23,-5.61,0.39,-0.57,-0.39,-59.57,0.18,22.259893.00,-6.92,-3.51,-5.60,0.48,-0.34,-0.45,-60.80,4.23,17.329944.00,-6.95,-3.38,-5.15,0.48,-0.51,-0.32,-60.80,4.23,17.329995.00,-7.36,-5.03,-3.77,0.63,-0.49,-0.37,-59.21,6.17,14.1010047.00,-7.68,-4.18,-3.46,0.16,-0.32,-0.26,-59.21,6.17,14.1010098.00,-8.26,-6.32,-4.08,0.61,0.20,-0.41,-56.93,9.17,12.9110149.00,-8.17,-4.38,-5.33,-0.50,0.06,-0.28,-56.93,9.17,12.9110201.00,-5.97,-5.54,-3.70,0.34,0.40,-0.50,-56.93,9.17,12.9110252.00,-5.35,-4.62,-5.08,-0.38,0.35,-0.15,-55.88,9.87,13.5910303.00,-5.59,-3.64,-3.27,-0.16,0.25,-0.13,-55.88,9.87,13.5910355.00,-3.81,-2.91,-4.07,-0.73,0.63,0.17,-55.70,11.11,14.1010406.00,-4.28,-2.75,-4.32,-0.76,0.63,0.36,-55.70,11.11,14.1010457.00,-7.10,-2.47,-6.22,-0.75,0.24,0.59,-55.70,11.11,14.1010509.00,-6.87,-3.08,-6.91,-0.59,0.84,0.19,-58.34,7.40,19.0210560.00,-9.78,-2.19,-9.15,-0.31,0.50,0.22,-58.34,7.40,19.0210612.00,-7.17,-2.60,-10.12,-0.44,0.05,-0.04,-56.58,5.99,22.7610663.00,-8.19,-2.18,-7.74,1.05,-0.88,0.27,-56.58,5.99,22.7610714.00,-7.72,-2.53,-5.94,0.56,-1.11,-0.02,-56.58,5.99,22.7610766.00,-7.13,-3.82,-5.28,0.35,-0.84,0.35,-58.34,7.05,18.0010817.00,-8.41,-3.27,-7.05,0.66,-0.44,-0.12,-58.34,7.05,18.0010869.00,-9.08,-2.51,-5.92,0.85,-0.72,-0.38,-61.32,5.11,14.7810920.00,-6.93,-4.12,-3.75,0.63,0.19,-1.17,-61.32,5.11,14.7810971.00,-5.05,-5.19,-5.17,0.34,0.05,-0.81,-61.32,5.11,14.7811023.00,-9.97,-6.38,-6.04,2.10,-0.20,-0.27,-57.28,12.34,10.5311075.00,-5.38,-5.45,-4.52,1.10,-0.55,-0.74,-57.28,12.34,10.5311126.00,-7.33,-7.08,-2.87,0.81,-0.37,0.14,-56.93,14.81,4.0811177.00,-7.10,-5.93,-2.78,0.11,-0.06,0.58,-56.93,14.81,4.0811229.00,-7.21,-5.77,-2.02,0.02,-0.06,0.63,-56.93,14.81,4.0811280.00,-8.21,-5.04,-3.29,-0.94,0.29,0.45,-58.16,14.28,2.2111332.00,-7.25,-5.00,-3.50,-0.31,0.26,0.18,-58.16,14.28,2.2111383.00,-7.57,-5.86,-3.78,-1.07,0.51,0.32,-58.86,8.64,4.9311434.00,-7.14,-4.20,-5.47,-1.03,0.25,0.44,-58.86,8.64,4.9311486.00,-8.49,-4.79,-3.36,0.16,-0.16,-0.00,-60.62,8.99,9.0011537.00,-7.35,-4.89,-4.38,-0.69,0.21,0.16,-60.62,8.99,9.0011589.00,-7.54,-4.11,-5.01,-0.63,0.11,0.28,-60.62,8.99,9.0011640.00,-7.70,-4.19,-4.59,-0.18,-0.08,0.18,-60.27,5.82,9.0011692.00,-8.07,-3.93,-4.33,-0.08,-0.09,0.17,-60.27,5.82,9.0011743.00,-7.85,-4.18,-4.16,-0.25,-0.10,0.12,-60.09,4.94,9.8511795.00,-8.15,-3.88,-4.52,-0.55,0.04,0.22,-60.09,4.94,9.8511846.00,-7.90,-3.70,-4.80,-0.18,0.02,0.02,-60.09,4.94,9.8511898.00,-8.09,-3.53,-5.02,-0.05,0.00,0.04,-61.15,3.53,9.8511949.00,-7.93,-3.65,-4.76,0.02,-0.09,-0.05,-61.15,3.53,9.8512001.00,-8.01,-3.90,-4.45,-0.01,-0.05,-0.02,-61.15,3.17,10.1912052.00,-7.95,-3.81,-4.61,-0.11,-0.03,0.01,-61.15,3.17,10.1912104.00,-7.94,-3.65,-4.75,-0.05,-0.04,0.02,-61.15,5.29,10.8712155.00,-8.16,-3.53,-4.59,0.03,-0.08,0.04,-61.15,5.29,10.8712207.00,-7.99,-3.56,-4.71,-0.01,-0.06,-0.03,-61.15,5.29,10.8712258.00,-7.97,-3.70,-4.63,0.11,-0.08,-0.04,-60.97,4.76,9.3412310.00,-8.05,-3.73,-4.56,0.11,-0.09,-0.03,-60.97,4.76,9.3412361.00,-8.09,-3.83,-4.46,0.12,-0.08,-0.06,-60.44,4.58,8.8312413.00,-8.11,-3.82,-4.25,0.07,-0.06,-0.04,-60.44,4.58,8.8312464.00,-8.09,-3.83,-4.43,-0.00,-0.00,-0.01,-60.44,4.58,8.8312516.00,-8.02,-3.78,-4.45,0.02,-0.02,-0.01,-61.67,5.47,9.0012567.00,-8.10,-3.87,-4.29,0.05,-0.01,-0.03,-61.67,5.47,9.0012619.00,-7.96,-3.98,-4.41,-0.03,0.00,-0.02,-59.39,4.58,8.8312670.00,-8.06,-3.77,-4.43,-0.06,0.00,0.03,-59.39,4.58,8.8312722.00,-8.01,-3.88,-4.43,-0.02,0.03,-0.01,-59.39,4.58,8.8312773.00,-8.01,-3.81,-4.50,-0.04,0.02,0.01,-61.15,4.94,8.8312825.00,-8.08,-3.63,-4.57,-0.04,0.01,-0.00,-61.15,4.94,8.8312876.00,-8.03,-3.79,-4.51,0.02,-0.02,-0.02,-60.62,5.11,9.6812928.00,-8.04,-3.77,-4.40,-0.01,-0.02,-0.00,-60.62,5.11,9.6812979.00,-8.01,-3.78,-4.58,-0.01,-0.02,-0.01,-60.80,3.17,9.5113031.00,-8.06,-3.77,-4.50,0.02,-0.03,-0.00,-60.80,3.17,9.5113082.00,-8.17,-3.59,-4.41,0.00,-0.02,0.00,-60.80,3.17,9.5113134.00,-8.04,-3.80,-4.53,0.01,-0.01,-0.05,-62.55,4.23,8.4913185.00,-8.13,-3.84,-4.30,0.03,-0.02,-0.01,-62.55,4.23,8.4913237.00,-8.06,-3.81,-4.35,-0.02,0.00,-0.01,-62.55,4.23,8.4913288.00,-8.10,-3.66,-4.48,-0.04,0.01,0.01,-60.62,5.11,9.0013340.00,-8.02,-3.66,-4.56,-0.01,-0.03,0.01,-60.62,5.11,9.0013391.00,-8.21,-3.83,-4.16,0.01,-0.03,-0.02,-60.80,3.88,9.1713443.00,-8.05,-3.54,-4.71,-0.09,0.01,0.02,-60.80,3.88,9.1713494.00,-8.13,-3.72,-4.38,0.05,-0.03,-0.02,-59.57,3.35,10.0213546.00,-8.11,-3.67,-4.55,-0.06,0.03,-0.00,-59.57,3.35,10.0213598.00,-8.15,-3.73,-4.29,0.03,0.00,-0.04,-59.57,3.35,10.0213649.00,-8.90,-3.51,-3.69,-0.04,0.12,-0.08,-62.20,2.82,8.8313701.00,-7.75,-3.92,-4.33,-0.44,0.59,-0.31,-62.20,2.82,8.8313752.00,-7.27,-3.64,-5.62,-0.46,0.54,-0.25,-60.62,5.11,12.7413804.00,-7.09,-3.72,-6.23,-0.18,0.31,-0.11,-60.62,5.11,12.7413855.00,-7.23,-3.75,-5.78,0.08,0.11,-0.07,-60.62,5.11,12.7413907.00,-8.07,-3.62,-5.28,0.37,-0.03,-0.04,-61.50,5.99,13.9313958.00,-8.45,-4.18,-5.54,0.27,0.14,-0.27,-61.50,5.99,13.9314010.00,-6.94,-4.55,-6.29,0.49,-0.13,-0.45,-59.21,6.52,12.4014062.00,-7.14,-4.14,-6.09,1.54,-1.37,-0.04,-59.21,6.52,12.4014113.00,-7.01,-4.08,-3.03,2.78,-1.52,-0.33,-59.21,6.52,12.4014165.00,-7.05,-6.76,0.09,1.72,-0.62,-0.10,-58.51,9.34,2.8914216.00,-6.64,-7.14,-0.22,-1.15,0.25,0.63,-58.51,9.34,2.8914268.00,-8.74,-3.30,-4.60,-2.08,0.25,0.58,-58.51,6.88,0.8514319.00,-7.85,-4.11,-2.46,-0.50,-0.07,0.09,-58.51,6.88,0.8514371.00,-6.86,-3.17,-2.76,-0.51,-0.00,0.14,-59.92,5.47,4.2514423.00,-12.95,-4.71,-4.63,-0.14,-0.02,0.28,-59.92,5.47,4.2514474.00,-6.16,-4.87,-3.66,-0.38,0.41,-0.38,-59.92,5.47,4.2514526.00,-9.43,-3.87,-3.77,0.13,-0.15,-0.00,-59.92,5.82,6.6214577.00,-7.46,-4.41,-3.64,0.09,-0.03,-0.08,-59.92,5.82,6.6214629.00,-8.31,-4.28,-3.79,0.40,-0.03,-0.05,-58.86,4.76,4.5914680.00,-9.14,-3.89,-2.72,0.05,-0.02,0.11,-58.86,4.76,4.5914732.00,-8.18,-3.97,-4.11,-0.10,0.08,0.05,-58.86,4.76,4.5914784.00,-8.36,-4.63,-3.13,0.26,-0.07,-0.02,-59.92,5.11,4.2514835.00,-8.44,-4.33,-3.25,-0.05,-0.06,0.12,-59.92,5.11,4.2514887.00,-8.31,-4.38,-2.18,-0.28,-0.00,0.48,-58.86,4.05,4.2514938.00,-8.10,-2.71,-5.40,-0.97,0.25,0.45,-58.86,4.05,4.2514990.00,-8.38,-3.56,-4.01,0.41,-0.06,-0.09,-61.67,3.35,5.6115042.00,-8.69,-4.21,-3.51,0.28,0.28,-0.45,-61.67,3.35,5.6115093.00,-7.34,-4.42,-4.07,-0.01,0.18,-0.29,-61.67,3.35,5.6115145.00,-7.75,-4.00,-4.39,0.18,-0.23,0.07,-60.97,4.76,5.9415196.00,-8.75,-4.38,-3.61,0.27,-0.21,0.10,-60.97,4.76,5.9415248.00,-8.60,-4.30,-3.03,-0.46,0.31,0.40,-59.74,3.17,5.7715300.00,-8.34,-3.01,-4.50,-0.36,0.31,0.33,-59.74,3.17,5.7715351.00,-8.35,-3.34,-4.71,-0.11,0.15,-0.05,-59.74,3.17,5.7715403.00,-7.66,-3.85,-4.69,0.44,-0.07,-0.26,-61.85,1.76,7.1315455.00,-9.49,-3.47,-3.05,0.48,-0.32,-0.09,-61.85,1.76,7.1315506.00,-8.50,-4.03,-3.72,0.14,-0.16,0.04,-60.27,3.35,6.9615558.00,-8.62,-4.41,-2.21,-0.07,-0.10,0.32,-60.27,3.35,6.9615609.00,-8.41,-2.18,-4.91,-0.70,0.19,0.36,-60.27,3.35,6.9615661.00,-9.27,-3.56,-3.67,0.27,0.15,-0.12,-61.50,0.71,7.1315713.00,-8.87,-3.88,-3.42,-0.20,0.11,-0.48,-61.50,0.71,7.1315765.00,-7.33,-3.57,-5.74,-0.73,0.28,-0.05,-60.09,2.12,7.8115816.00,-7.92,-3.53,-4.98,-0.07,-0.19,0.04,-60.09,2.12,7.8115868.00,-8.36,-3.23,-4.25,0.06,-0.11,-0.01,-62.03,0.88,8.3215920.00,-8.12,-3.61,-4.53,0.10,-0.14,0.01,-62.03,0.88,8.3215971.00,-10.65,-3.18,-3.60,0.24,-0.32,0.18,-62.03,0.88,8.3216023.00,-8.59,-3.18,-3.57,-0.45,-0.07,0.02,-60.80,1.76,6.1116075.00,-8.28,-3.04,-4.60,-0.37,-0.05,-0.13,-60.80,1.76,6.1116126.00,-8.32,-3.50,-4.29,0.09,-0.15,-0.26,-61.32,2.29,7.9816178.00,-8.34,-3.42,-3.94,0.18,-0.02,-0.07,-61.32,2.29,7.9816230.00,-9.54,-3.52,-3.54,0.43,0.09,0.27,-61.32,2.29,7.9816282.00,-9.37,-1.54,-4.01,-0.07,0.41,0.49,-60.62,1.59,5.6116333.00,-12.34,-1.53,-5.54,0.52,0.23,-0.21,-60.62,1.59,5.6116385.00,-5.88,-7.56,-4.68,1.11,-0.63,-1.28,-61.32,3.00,8.3216437.00,-5.14,-3.05,0.85,0.75,-1.02,-0.29,-61.32,3.00,8.3216488.00,-4.76,-4.68,-4.67,-0.41,1.40,0.76,-61.32,3.00,8.3216540.00,-15.52,-3.72,-8.92,-0.31,0.32,0.43,-60.62,4.05,5.9416592.00,-5.45,-3.99,-4.94,-0.22,-0.08,0.23,-60.62,4.05,5.9416643.00,-7.92,-4.43,-2.11,0.11,-0.47,-0.11,-60.44,4.23,6.4516695.00,-9.87,-2.95,-2.80,-0.13,-0.27,0.15,-60.44,4.23,6.4516747.00,-8.06,-4.09,-4.02,-0.10,-0.14,-0.09,-61.67,3.00,4.5916799.00,-8.32,-3.68,-3.81,-0.09,-0.16,-0.07,-61.67,3.00,4.5916851.00,-8.26,-3.40,-3.56,0.14,0.02,-0.08,-61.67,3.00,4.5916903.00,-9.17,-3.12,-4.23,-0.00,0.34,0.25,-61.85,4.23,3.4016954.00,-8.36,-4.67,-2.38,-0.30,0.35,0.41,-61.85,4.23,3.4017006.00,-8.41,-2.72,-4.68,-0.16,0.18,0.10,-60.97,1.59,5.9417058.00,-8.56,-2.44,-4.33,0.10,-0.01,-0.15,-60.97,1.59,5.9417110.00,-7.17,-5.62,-3.08,0.47,-0.25,-0.40,-60.97,1.59,5.9417161.00,-8.64,-4.20,-2.60,-0.02,-0.09,0.09,-60.97,2.64,5.6117213.00,-8.48,-3.17,-4.08,-0.31,0.11,0.17,-60.97,2.64,5.6117265.00,-8.68,-4.13,-3.54,-0.41,0.30,-0.04,-62.55,2.47,5.1017317.00,-7.06,-4.12,-5.47,-0.40,0.30,0.13,-62.55,2.47,5.1017368.00,-9.89,-2.72,-2.97,0.26,-0.38,0.23,-61.67,1.94,6.6217420.00,-8.41,-3.28,-4.33,-0.06,-0.07,-0.00,-61.67,1.94,6.6217472.00,-8.29,-4.24,-2.69,0.34,-0.08,-0.06,-61.67,1.94,6.6217524.00,-8.44,-4.07,-3.23,-0.34,0.24,0.24,-60.62,0.88,6.2817576.00,-8.21,-2.73,-5.46,-0.35,-0.02,0.05,-60.62,0.88,6.2817627.00,-8.39,-3.66,-4.09,0.13,-0.14,-0.14,-61.67,1.94,7.3017679.00,-8.47,-3.97,-3.38,0.13,0.01,0.01,-61.67,1.94,7.3017731.00,-8.55,-3.57,-3.62,-0.02,0.13,0.10,-61.67,1.94,7.3017783.00,-8.75,-2.68,-4.62,-0.13,0.12,-0.08,-61.67,0.53,6.2817834.00,-7.56,-3.93,-4.92,-0.07,-0.04,-0.19,-61.67,0.53,6.2817886.00,-8.68,-2.83,-4.24,-0.14,-0.19,0.09,-61.67,1.94,8.3217938.00,-8.33,-3.37,-3.54,0.12,-0.14,0.05,-61.67,1.94,8.3217990.00,-8.76,-2.70,-4.16,0.07,0.26,0.15,-61.67,1.94,8.3218042.00,-8.29,-3.14,-4.43,-0.24,0.08,-0.33,-61.32,0.88,8.3218094.00,-7.22,-4.16,-5.69,-0.02,-0.19,-0.20,-61.32,0.88,8.3218145.00,-8.61,-2.61,-2.78,-0.30,-0.22,0.10,-62.20,2.82,7.1318197.00,-9.23,-2.96,-3.57,-0.08,0.20,-0.06,-62.20,2.82,7.1318249.00,-7.37,-3.69,-5.13,-0.27,0.24,-0.29,-59.92,3.00,9.0018301.00,-7.62,-3.91,-5.25,0.07,-0.19,-0.10,-59.92,3.00,9.0018353.00,-8.65,-3.14,-3.35,-0.03,-0.15,0.16,-59.92,3.00,9.0018405.00,-8.86,-2.26,-4.83,-0.16,0.24,0.32,-60.97,1.59,6.6218456.00,-8.20,-3.14,-4.25,-0.12,0.33,0.52,-60.97,1.59,6.6218508.00,-8.73,-2.64,-3.74,0.27,0.02,0.16,-62.73,0.18,8.3218560.00,-8.64,-2.90,-3.99,0.19,0.21,-0.10,-62.73,0.18,8.3218612.00,-7.17,-4.37,-5.84,0.18,-0.15,-0.42,-62.73,0.18,8.3218664.00,-8.60,-3.36,-3.47,-0.08,-0.45,0.16,-61.67,1.59,8.6618716.00,-8.92,-2.99,-3.78,-0.04,-0.22,0.12,-61.67,1.59,8.6618767.00,-11.19,-1.67,-2.57,0.08,-0.60,0.04,-62.55,0.00,6.1118819.00,-7.57,-4.36,-4.96,0.13,-0.30,-0.72,-62.55,0.00,6.1118871.00,-8.15,-2.61,1.07,0.21,-1.28,-0.00,-62.55,0.00,6.1118923.00,-6.57,-3.68,-4.48,-0.69,1.64,0.25,-61.32,1.59,1.5318975.00,-10.37,-3.34,-10.43,0.66,1.27,-0.21,-61.32,1.59,1.5319027.00,-7.21,-4.11,-5.13,0.45,0.01,0.02,-62.55,2.12,5.7719079.00,-8.92,-3.72,-2.61,0.82,-0.40,-0.10,-62.55,2.12,5.7719130.00,-8.52,-4.14,-3.46,0.00,-0.28,0.05,-60.97,2.64,4.9319182.00,-9.35,-3.46,-3.03,0.14,-0.25,0.08,-60.97,2.64,4.9319234.00,-8.39,-4.80,-2.86,-0.12,0.08,0.10,-60.97,2.64,4.9319286.00,-8.67,-3.11,-4.09,-0.60,0.55,0.53,-62.73,1.59,4.2519338.00,-8.58,-2.66,-3.87,-0.18,0.17,0.13,-62.73,1.59,4.2519390.00,-8.90,-3.32,-3.88,0.22,-0.05,-0.46,-62.73,0.88,7.6419442.00,-7.18,-4.83,-4.18,0.11,-0.10,-0.23,-62.73,0.88,7.6419494.00,-8.73,-3.95,-2.23,-0.12,-0.15,0.10,-62.73,0.88,7.6419546.00,-8.86,-3.64,-3.34,-0.07,0.10,-0.00,-61.85,2.47,6.4519597.00,-9.12,-3.51,-3.61,-0.10,0.32,-0.11,-61.85,2.47,6.4519649.00,-7.40,-3.83,-5.55,-0.22,0.22,0.21,-62.20,3.17,7.8119701.00,-7.55,-3.54,-5.08,0.24,-0.32,0.32,-62.20,3.17,7.8119753.00,-8.88,-2.82,-3.37,-0.24,-0.11,0.02,-63.08,0.18,5.9419805.00,-8.38,-4.12,-3.63,-0.03,0.01,-0.03,-63.08,0.18,5.9419857.00,-8.37,-3.15,-4.36,-0.04,0.14,0.18,-63.08,0.18,5.9419909.00,-9.26,-2.79,-3.83,-0.10,0.08,-0.03,-62.20,1.76,7.8119961.00,-7.35,-4.12,-4.89,-0.18,-0.00,-0.17,-62.20,1.76,7.8120013.00,-8.62,-3.31,-3.59,-0.02,-0.22,0.13,-63.43,-0.88,5.9420065.00,-8.70,-2.85,-4.74,-0.46,0.15,0.14,-63.43,-0.88,5.9420117.00,-8.31,-2.92,-4.81,-0.16,-0.07,-0.02,-63.43,-0.88,5.9420168.00,-8.38,-3.21,-4.16,0.16,-0.07,-0.15,-63.96,1.06,8.1520220.00,-8.44,-3.13,-4.09,0.18,0.02,-0.09,-63.96,1.06,8.1520272.00,-8.42,-3.32,-4.10,-0.00,0.12,0.06,-62.55,-0.35,8.8320324.00,-8.40,-3.66,-4.00,-0.07,0.11,0.19,-62.55,-0.35,8.8320376.00,-8.78,-2.69,-4.16,-0.11,0.02,0.20,-62.55,-0.35,8.8320428.00,-8.47,-2.90,-3.96,-0.25,-0.02,0.12,-62.73,-0.88,8.3220480.00,-8.53,-2.86,-4.77,-0.24,-0.04,-0.08,-62.73,-0.88,8.3220532.00,-8.52,-2.91,-4.40,-0.08,0.00,0.00,-65.36,-0.71,8.4920584.00,-8.07,-3.78,-3.72,-0.06,0.08,0.20,-65.36,-0.71,8.4920635.00,-8.51,-1.73,-4.95,0.09,0.13,0.22,-64.49,-1.23,6.9620688.00,-8.60,-1.28,-5.51,0.13,0.05,-0.51,-64.49,-1.23,6.9620739.00,-8.09,-4.60,-3.56,0.27,0.02,-0.93,-64.49,-1.23,6.9620791.00,-7.94,-3.02,-5.08,-0.27,0.14,-0.35,-64.49,-1.23,6.9620843.00,-7.71,-3.72,-5.16,0.15,-0.19,-0.42,-64.49,-1.23,6.9620895.00,-7.75,-4.03,-4.71,0.34,-0.43,0.17,-63.43,1.94,7.6420947.00,-8.93,-3.06,-2.81,-0.07,-0.04,0.28,-63.43,1.94,7.6420999.00,-10.52,-1.44,-5.56,-0.22,-0.00,0.27,-63.43,1.94,7.6421051.00,-6.98,-4.59,-4.48,0.26,-0.15,-0.54,-63.08,0.18,7.3021103.00,-6.86,-2.56,-1.96,0.33,-1.26,0.38,-63.08,0.18,7.3021155.00,-9.34,-4.39,-2.51,-0.09,1.32,0.01,-62.38,1.94,3.9121207.00,-6.32,-3.48,-5.08,0.06,0.14,-0.06,-62.38,1.94,3.9121259.00,-9.51,-2.27,-4.80,0.02,-0.51,0.23,-62.38,1.94,3.9121311.00,-8.57,-3.61,-3.03,0.09,-0.27,-0.17,-62.38,1.59,7.9821363.00,-8.09,-4.00,-4.00,-0.10,-0.06,-0.10,-62.38,1.59,7.9821415.00,-8.63,-3.46,-3.25,-0.10,-0.03,0.10,-63.96,1.41,5.4421467.00,-8.18,-3.53,-3.41,-0.47,0.44,0.50,-63.96,1.41,5.4421519.00,-8.74,-1.95,-4.80,-0.29,0.21,0.28,-62.38,-0.88,7.3021571.00,-8.68,-2.20,-4.50,-0.18,-0.05,0.01,-62.38,-0.88,7.3021623.00,-8.63,-3.53,-3.67,0.08,-0.14,-0.14,-62.38,-0.88,7.3021675.00,-8.66,-3.05,-3.58,-0.32,0.09,0.35,-63.43,0.18,8.3221727.00,-8.37,-2.72,-4.79,0.23,0.13,0.10,-63.43,0.18,8.3221779.00,-8.84,-1.48,-4.46,0.24,-0.11,-0.20,-63.08,-1.59,8.3221831.00,-8.95,-3.51,-2.84,0.47,-0.01,-0.33,-63.08,-1.59,8.3221883.00,-9.22,-3.42,-3.40,-0.17,0.20,-0.26,-63.08,-1.59,8.3221935.00,-8.08,-3.24,-4.42,-0.68,0.12,0.19,-63.43,0.18,7.3021987.00,-7.55,-3.36,-5.13,0.02,-0.19,0.34,-63.43,0.18,7.3022039.00,-8.67,-2.32,-4.43,0.01,-0.20,0.19,-63.26,0.00,9.1722091.00,-8.67,-2.45,-4.17,-0.29,-0.01,0.14,-63.26,0.00,9.1722143.00,-8.33,-2.49,-5.20,-0.12,0.02,-0.02,-63.43,-1.23,8.3222195.00,-8.45,-2.53,-4.60,0.14,0.01,-0.18,-63.43,-1.23,8.3222247.00,-8.85,-2.56,-3.23,0.24,0.01,0.07,-63.43,-1.23,8.3222299.00,-8.66,-3.92,-3.27,0.05,0.14,0.11,-65.01,0.00,9.5122351.00,-8.82,-1.52,-4.97,-0.31,0.11,0.23,-65.01,0.00,9.5122403.00,-8.22,-2.98,-4.33,-0.11,0.08,-0.22,-63.96,-2.82,9.1722455.00,-7.89,-2.74,-5.50,-0.07,-0.11,-0.03,-63.96,-2.82,9.1722508.00,-8.59,-2.31,-3.94,0.19,-0.12,0.06,-62.90,-1.76,8.8322560.00,-8.52,-2.56,-4.78,0.09,0.02,-0.04,-62.90,-1.76,8.8322613.00,-8.63,-3.20,-4.21,0.12,0.02,-0.02,-62.90,-1.76,8.8322667.00,-8.68,-2.80,-4.11,-0.11,0.10,0.14,-63.78,-1.23,8.6622718.00,-8.64,-1.91,-4.38,-0.23,-0.02,0.15,-63.78,-1.23,8.6622768.00,-8.69,-2.11,-4.77,-0.03,-0.11,-0.15,-63.61,-2.12,8.8322819.00,-8.37,-2.93,-4.27,0.11,-0.11,-0.21,-63.61,-2.12,8.8322870.00,-8.30,-2.95,-3.93,-0.03,0.10,0.07,-63.61,-2.12,8.8322920.00,-8.89,-1.64,-4.87,-0.26,0.17,0.31,-62.38,-1.59,8.3222971.00,-8.65,-2.08,-4.33,-0.20,-0.02,0.12,-62.38,-1.59,8.3223021.00,-8.67,-2.24,-4.71,-0.02,-0.17,-0.14,-64.31,-3.17,7.4723072.00,-8.64,-2.33,-4.18,0.04,-0.04,-0.03,-64.31,-3.17,7.4723123.00,-8.68,-2.69,-4.52,-0.02,0.12,0.09,-64.31,-3.17,7.4723173.00,-8.74,-2.37,-4.39,-0.19,0.06,0.17,-64.49,-2.64,7.9823224.00,-8.56,-1.51,-5.11,-0.26,-0.01,0.12,-64.49,-2.64,7.9823274.00,-8.54,-1.87,-4.99,0.05,-0.14,-0.20,-63.96,-4.58,9.1723325.00,-8.69,-2.21,-4.18,0.05,-0.04,-0.02,-63.96,-4.58,9.1723376.00,-9.03,-1.75,-4.89,-0.32,0.24,0.49,-63.96,-4.58,9.1723426.00,-8.97,-1.79,-3.68,-0.04,0.07,0.10,-64.31,-3.88,9.5123477.00,-8.98,-1.54,-4.12,-0.23,1.38,-1.16,-64.31,-3.88,9.5123527.00,-5.92,-4.11,-9.08,0.08,0.51,-0.73,-61.85,-0.71,14.2723578.00,-6.47,-3.37,-8.56,0.24,-0.67,-0.53,-61.85,-0.71,14.2723629.00,-7.73,-3.81,-3.44,1.13,-0.76,-0.38,-61.85,-0.71,14.2723679.00,-6.55,-3.51,-5.84,0.63,-0.06,-0.44,-62.38,3.70,10.0223730.00,-7.42,-4.11,-1.42,1.18,-0.04,0.38,-62.38,3.70,10.0223781.00,-8.33,-2.38,-2.89,0.28,0.16,0.55,-63.61,3.17,8.8323831.00,-11.41,-2.76,-4.36,-0.13,-0.24,0.45,-63.61,3.17,8.8323882.00,-9.21,-2.82,-2.89,0.11,-0.05,-0.35,-63.61,3.17,8.8323932.00,-8.25,-3.78,-5.05,0.12,-0.06,-0.48,-62.73,3.00,7.3023983.00,-8.16,-4.54,-3.61,0.74,-0.15,-0.57,-62.73,3.00,7.3024034.00,-8.52,-3.86,-3.82,0.12,-0.05,-0.18,-61.32,4.76,6.6224084.00,-8.10,-4.77,-2.81,0.31,-0.13,-0.16,-61.32,4.76,6.6224135.00,-8.08,-3.98,-4.12,-0.02,-0.02,0.10,-61.32,4.76,6.6224186.00,-7.76,-4.65,-3.60,0.21,-0.24,-0.01,-62.73,3.70,4.5924236.00,-8.57,-3.68,-2.96,0.19,-0.18,0.05,-62.73,3.70,4.5924287.00,-8.51,-5.10,-2.15,0.40,-0.14,0.09,-62.90,4.23,4.7624338.00,-8.10,-3.91,-3.27,-0.54,0.21,0.39,-62.90,4.23,4.7624388.00,-8.78,-3.43,-4.26,-0.26,0.31,0.04,-62.03,3.70,3.9124439.00,-7.24,-4.30,-4.72,-0.27,0.09,-0.31,-62.03,3.70,3.9124490.00,-10.60,-3.60,-2.66,0.17,-0.31,0.11,-62.03,3.70,3.9124540.00,-8.48,-3.92,-2.97,0.06,-0.07,-0.08,-63.43,3.70,4.9324591.00,-8.46,-5.35,-2.61,0.17,0.08,0.08,-63.43,3.70,4.9324642.00,-8.28,-3.86,-3.07,-0.49,0.31,0.57,-63.43,3.70,4.9324693.00,-8.55,-2.72,-5.02,-0.19,0.25,0.37,-62.90,3.53,6.4524743.00,-8.11,-2.99,-3.88,0.13,-0.06,-0.21,-62.90,3.53,6.4524794.00,-8.87,-5.68,-1.28,0.70,-0.31,-0.63,-63.08,3.00,6.9624845.00,-8.46,-4.50,-3.25,-0.67,0.52,0.16,-63.08,3.00,6.9624895.00,-7.33,-3.97,-5.27,-0.30,0.11,0.28,-62.20,2.47,8.4924946.00,-7.59,-3.54,-5.37,0.02,-0.18,0.38,-62.20,2.47,8.4924997.00,-8.74,-3.62,-2.03,0.03,-0.16,0.09,-62.20,2.47,8.4925048.00,-8.36,-2.88,-4.70,-0.35,0.06,0.06,-63.78,0.53,7.3025099.00,-8.43,-3.49,-4.17,0.25,-0.13,-0.31,-63.78,0.53,7.3025149.00,-8.46,-3.87,-3.31,0.28,0.04,0.09,-62.73,2.29,8.3225200.00,-8.97,-3.97,-3.21,0.12,0.10,0.07,-62.73,2.29,8.3225251.00,-10.02,-1.86,-7.12,-0.59,0.08,0.37,-62.73,2.29,8.3225301.00,-9.32,-2.97,-3.16,0.44,-0.47,-0.80,-64.66,0.35,8.1525352.00,-7.19,-2.31,-1.59,0.15,-0.68,-0.02,-64.66,0.35,8.1525403.00,-5.49,-4.95,-2.26,0.32,0.64,-0.11,-64.13,2.29,5.2725454.00,-10.31,-3.99,-5.89,0.26,0.15,-0.02,-64.13,2.29,5.2725504.00,-5.63,-4.79,-4.28,0.30,0.16,-0.14,-64.13,2.29,5.2725555.00,-8.93,-3.77,-2.11,0.23,-0.23,0.03,-63.96,2.82,5.7725606.00,-8.28,-3.71,-3.81,-0.04,-0.03,0.11,-63.96,2.82,5.7725656.00,-8.49,-3.68,-3.32,-0.16,0.04,0.08,-63.43,2.64,6.9625707.00,-8.65,-3.77,-3.06,-0.32,0.01,0.05,-63.43,2.64,6.9625758.00,-8.34,-4.00,-3.61,-0.03,-0.07,-0.09,-63.43,2.64,6.9625809.00,-8.27,-4.18,-3.27,-0.35,0.09,0.21,-63.96,0.35,6.4525859.00,-8.43,-3.13,-4.18,0.14,0.03,0.03,-63.96,0.35,6.4525910.00,-8.47,-3.48,-3.96,0.29,-0.02,-0.29,-62.38,2.29,7.3025961.00,-8.70,-4.71,-2.61,-0.06,0.02,-0.10,-62.38,2.29,7.3026012.00,-8.09,-3.55,-4.47,-0.38,0.04,0.20,-62.38,2.29,7.3026062.00,-9.36,-3.08,-4.20,-0.07,-0.13,0.18,-62.38,2.29,7.3026113.00,-8.71,-3.32,-3.47,0.10,0.00,0.08,-62.38,2.29,7.3026164.00,-8.50,-4.08,-3.29,-0.06,0.13,0.14,-64.31,0.00,6.7926215.00,-8.38,-2.78,-4.75,-0.34,-0.01,0.11,-64.31,0.00,6.7926266.00,-8.27,-3.07,-4.67,-0.05,-0.13,-0.12,-64.31,0.00,6.7926316.00,-8.85,-3.28,-3.33,0.05,0.06,-0.06,-62.90,-1.41,7.4726367.00,-9.14,-3.06,-3.30,-0.20,0.27,-0.06,-62.90,-1.41,7.4726418.00,-7.61,-3.36,-5.70,-0.11,0.01,0.10,-64.49,-0.88,10.0226469.00,-10.12,-3.01,-3.45,0.18,-0.41,0.19,-64.49,-0.88,10.0226520.00,-8.45,-2.81,-3.48,0.05,-0.01,0.19,-64.49,-0.88,10.0226570.00,-8.99,-2.61,-4.77,-0.16,0.19,-0.13,-64.31,-1.06,10.1926621.00,-7.48,-4.05,-4.98,-0.10,-0.02,-0.48,-64.31,-1.06,10.1926672.00,-8.43,-3.51,-4.63,-0.25,-0.21,0.15,-63.96,-0.71,7.4726723.00,-8.77,-2.70,-3.37,0.13,0.05,-0.04,-63.96,-0.71,7.4726774.00,-8.16,-3.34,-4.61,-0.23,0.28,-0.02,-64.31,-0.35,8.8326824.00,-7.90,-3.63,-4.87,-0.17,0.05,0.15,-64.31,-0.35,8.8326875.00,-8.31,-3.04,-4.64,-0.12,-0.28,0.12,-64.31,-0.35,8.8326926.00,-8.67,-2.56,-3.71,0.14,-0.09,0.02,-65.36,0.35,9.1726977.00,-8.54,-3.64,-3.67,0.22,0.02,0.01,-65.36,0.35,9.1727028.00,-8.68,-2.55,-4.31,0.14,0.07,0.18,-65.36,0.35,9.1727079.00,-8.55,-2.55,-4.45,0.22,0.05,0.14,-65.01,-2.47,7.8127130.00,-8.70,-2.27,-4.18,0.11,-0.06,-0.17,-65.01,-2.47,7.8127180.00,-9.21,-3.76,-3.62,0.15,-0.05,-0.13,-64.84,-1.23,7.3027231.00,-8.39,-2.62,-4.49,-0.67,-0.01,-0.07,-64.84,-1.23,7.3027282.00,-8.22,-3.17,-4.15,-0.11,-0.22,-0.16,-66.07,-2.12,8.1527333.00,-8.21,-3.59,-3.88,0.13,-0.31,0.05,-66.07,-2.12,8.1527384.00,-8.95,-2.78,-3.84,0.08,-0.26,0.21,-66.07,-2.12,8.1527435.00,-8.60,-3.06,-3.18,0.10,-0.28,0.07,-64.66,-1.06,7.1327486.00,-8.65,-3.26,-3.77,0.04,-0.13,0.05,-64.66,-1.06,7.1327537.00,-8.72,-2.98,-3.69,-0.08,0.03,0.03,-63.61,-2.82,5.7727587.00,-7.94,-3.85,-3.25,-0.05,0.16,0.14,-63.61,-2.82,5.7727638.00,-8.49,-2.27,-3.77,-0.23,0.26,0.33,-63.61,-2.82,5.7727689.00,-8.78,-2.55,-4.27,-0.18,0.08,0.07,-64.84,-3.35,6.2827740.00,-8.81,-2.55,-3.56,0.02,-0.14,-0.14,-64.84,-3.35,6.2827791.00,-8.87,-2.85,-4.44,-0.11,0.04,0.02,-64.31,-4.23,5.7727842.00,-8.82,-1.88,-4.67,-0.12,0.18,0.27,-64.31,-4.23,5.7727893.00,-8.97,-1.98,-3.82,0.13,0.02,-0.26,-64.84,-3.70,6.9627944.00,-9.45,-2.82,-3.68,0.24,-0.03,-0.30,-64.84,-3.70,6.9627995.00,-8.84,-2.87,-3.79,-0.08,-0.13,-0.58,-64.84,-3.70,6.9628046.00,-6.91,-4.07,-5.57,-0.08,-0.24,-0.24,-63.78,-0.88,7.3028097.00,-7.76,-2.97,0.88,0.49,0.01,-0.03,-63.78,-0.88,7.3028148.00,-8.61,-4.40,-5.89,0.45,1.15,-0.03,-63.78,-0.88,7.3028199.00,-6.52,-3.42,-4.09,0.06,0.12,-0.08,-65.36,-2.82,6.4528250.00,-9.48,-2.42,-3.83,-0.12,-0.21,0.41,-65.36,-2.82,6.4528301.00,-7.97,-3.36,-3.45,-0.05,0.01,-0.27,-64.31,-3.17,6.7928352.00,-8.44,-3.28,-4.77,-0.07,-0.02,0.01,-64.31,-3.17,6.7928403.00,-8.78,-3.24,-3.50,-0.03,-0.12,-0.07,-64.66,-2.82,5.7728454.00,-8.64,-3.03,-4.26,-0.08,-0.08,0.01,-64.66,-2.82,5.7728504.00,-8.64,-2.95,-3.19,0.01,-0.00,0.12,-64.66,-2.82,5.7728556.00,-9.04,-2.48,-3.67,-0.09,0.24,0.05,-66.07,-3.17,7.4728607.00,-9.08,-2.50,-4.14,-0.16,0.11,-0.18,-66.07,-3.17,7.4728657.00,-7.90,-3.65,-4.71,-0.01,-0.29,-0.16,-65.54,-1.94,8.3228708.00,-8.86,-2.47,-4.03,-0.18,-0.13,0.05,-65.54,-1.94,8.3228759.00,-9.08,-3.28,-2.99,0.19,0.06,-0.07,-65.54,-1.94,8.3228810.00,-9.26,-2.76,-3.82,-0.06,0.31,-0.02,-63.61,-2.12,7.4728861.00,-7.70,-3.43,-5.21,-0.03,0.06,0.09,-63.61,-2.12,7.4728912.00,-8.85,-2.60,-3.95,-0.02,-0.17,0.17,-63.61,-2.12,7.4728963.00,-8.87,-3.10,-3.75,-0.12,-0.02,0.04,-64.84,-3.35,9.0029014.00,-8.58,-2.87,-4.34,0.01,-0.03,-0.04,-64.84,-3.35,9.0029065.00,-8.63,-2.82,-3.86,-0.04,-0.12,-0.09,-65.01,-2.82,7.8129116.00,-8.65,-2.64,-3.99,0.02,0.01,-0.06,-65.01,-2.82,7.8129168.00,-8.74,-3.02,-3.70,0.14,0.02,-0.08,-65.36,-3.53,6.4529219.00,-8.75,-2.35,-4.66,-0.10,0.23,0.21,-65.36,-3.53,6.4529269.00,-8.76,-3.06,-3.72,-0.09,0.05,0.22,-65.36,-3.53,6.4529320.00,-8.74,-2.12,-3.80,-0.18,0.03,0.17,-65.36,-3.88,7.8129372.00,-8.74,-1.85,-4.79,-0.13,0.00,-0.13,-65.36,-3.88,7.8129423.00,-8.19,-2.78,-4.93,-0.16,0.24,-0.27,-65.36,-2.47,9.5129473.00,-8.07,-3.08,-4.83,0.03,-0.15,0.05,-65.36,-2.47,9.5129525.00,-9.41,-2.50,-4.10,0.04,-0.30,0.15,-65.36,-2.47,9.5129576.00,-8.66,-2.61,-4.04,0.02,-0.07,0.00,-66.07,-4.94,9.1729627.00,-8.55,-2.87,-3.78,-0.05,0.09,0.15,-66.07,-4.94,9.1729678.00,-8.81,-2.05,-4.23,-0.19,0.11,0.17,-64.66,-5.64,9.1729729.00,-9.00,-1.98,-4.73,-0.12,-0.06,-0.04,-64.66,-5.64,9.1729780.00,-8.68,-2.58,-4.49,-0.09,-0.08,-0.10,-65.01,-5.29,8.4929831.00,-8.68,-2.70,-4.29,-0.09,0.06,0.10,-65.01,-5.29,8.4929882.00,-8.61,-2.03,-4.36,-0.07,0.19,0.21,-65.01,-5.29,8.4929933.00,-8.92,-2.24,-4.39,0.15,0.25,-0.04,-65.19,-5.82,10.0229984.00,-8.76,-1.92,-5.38,-0.08,0.37,-0.85,-65.19,-5.82,10.0230035.00,-7.29,-3.90,-6.24,0.32,-0.55,-0.27,-65.19,-1.59,10.3630086.00,-8.90,-2.83,-2.92,0.51,-0.50,-0.30,-65.19,-1.59,10.3630137.00,-7.73,-3.84,-3.49,0.30,-0.28,-0.44,-65.19,-1.59,10.3630188.00,-7.77,-3.21,-3.12,0.24,0.38,0.16,-63.78,-0.18,7.3030239.00,-7.68,-3.21,-3.89,0.15,0.07,0.10,-63.78,-0.18,7.3030290.00,-9.22,-2.14,-3.94,-0.14,-0.19,0.32,-64.84,0.18,9.3430341.00,-9.34,-3.14,-5.83,0.30,-0.13,-0.15,-64.84,0.18,9.3430392.00,-8.88,-3.17,-2.52,0.44,-0.24,-0.43,-64.84,0.18,9.3430443.00,-8.30,-3.16,-3.79,0.71,-0.25,-0.55,-64.66,1.06,7.8130494.00,-8.79,-3.87,-3.98,-0.37,0.26,0.22,-64.66,1.06,7.8130546.00,-8.44,-3.11,-4.13,0.00,0.11,0.04,-64.49,1.23,7.6430597.00,-8.21,-3.65,-4.11,0.08,-0.02,-0.07,-64.49,1.23,7.6430648.00,-8.26,-3.79,-3.62,0.10,-0.14,-0.04,-64.49,1.23,7.6430699.00,-8.40,-3.78,-4.42,0.19,-0.29,0.10,-63.26,1.06,6.1130751.00,-8.64,-3.75,-2.89,0.19,-0.19,-0.01,-63.26,1.06,6.1130802.00,-8.76,-4.04,-2.87,0.21,-0.11,0.21,-63.78,0.18,5.6130853.00,-9.06,-3.34,-2.64,-0.39,-0.03,0.44,-63.78,0.18,5.6130904.00,-8.36,-3.02,-4.13,-0.37,0.16,0.44,-63.78,0.18,5.6130955.00,-8.43,-2.80,-4.34,-0.13,0.05,-0.04,-63.78,-1.94,5.6131006.00,-8.56,-3.68,-4.17,0.33,0.13,-0.35,-63.78,-1.94,5.6131057.00,-8.02,-3.39,-4.16,-0.08,0.24,-0.17,-63.43,-1.23,5.6131108.00,-8.28,-3.52,-3.94,0.04,-0.19,-0.06,-63.43,-1.23,5.6131160.00,-8.60,-3.41,-3.44,0.11,-0.08,-0.03,-63.78,-1.23,6.2831211.00,-8.66,-3.53,-3.51,0.16,0.08,0.03,-63.78,-1.23,6.2831262.00,-8.35,-4.76,-2.81,-0.08,0.16,0.25,-63.78,-1.23,6.2831313.00,-8.41,-1.78,-5.29,-0.36,0.32,0.49,-63.78,-1.23,7.9831364.00,-8.87,-2.27,-4.42,0.13,0.12,0.07,-63.78,-1.23,7.9831415.00,-8.61,-3.44,-4.23,0.55,-0.22,-0.75,-64.66,-1.76,8.4931467.00,-8.75,-4.97,-2.34,0.30,0.08,-0.14,-64.66,-1.76,8.4931518.00,-7.46,-3.52,-4.96,-0.68,0.41,0.09,-64.66,-1.76,8.4931569.00,-7.99,-3.49,-4.81,-0.30,0.06,0.26,-63.43,-1.94,9.0031620.00,-8.26,-2.87,-4.45,-0.03,-0.16,0.24,-63.43,-1.94,9.0031671.00,-8.52,-2.99,-4.00,0.04,-0.17,0.13,-65.01,-2.12,8.8331722.00,-8.44,-3.15,-3.84,0.05,-0.14,0.08,-65.01,-2.12,8.8331774.00,-8.73,-3.24,-3.24,-0.00,-0.07,0.07,-65.01,-2.12,8.8331825.00,-8.48,-2.84,-4.48,-0.04,-0.05,-0.05,-63.43,-3.35,6.6231876.00,-8.52,-2.59,-4.22,0.12,-0.10,-0.20,-63.43,-3.35,6.6231927.00,-8.81,-3.54,-3.45,0.32,-0.06,-0.14,-63.96,-2.82,6.4531978.00,-8.83,-3.37,-3.44,0.04,0.17,0.28,-63.96,-2.82,6.4532029.00,-8.82,-3.27,-3.40,-0.10,0.06,0.19,-63.96,-2.82,6.4532081.00,-10.75,-1.56,-3.61,0.04,-0.04,-0.13,-65.01,-2.12,8.1532132.00,-8.90,-2.47,-3.51,0.14,0.25,-0.64,-65.01,-2.12,8.1532183.00,-6.57,-3.35,-2.77,0.13,-0.39,-0.17,-63.78,-1.59,9.0032234.00,-7.48,-4.01,-2.84,0.19,0.27,0.12,-63.78,-1.59,9.0032285.00,-8.01,-3.10,-3.90,0.42,-0.10,-0.10,-63.78,-1.59,9.0032336.00,-10.09,-2.55,-3.88,0.11,-0.29,0.20,-64.49,-1.23,7.9832388.00,-8.41,-3.42,-3.01,0.11,-0.09,-0.15,-64.49,-1.23,7.9832439.00,-8.28,-3.63,-3.90,0.06,-0.06,-0.10,-63.43,-1.23,8.3232490.00,-8.24,-3.85,-3.83,0.07,-0.09,-0.09,-63.43,-1.23,8.3232541.00,-8.44,-3.74,-3.58,-0.03,-0.08,0.04,-64.49,-2.29,7.3032593.00,-8.55,-3.42,-4.07,-0.01,-0.03,-0.00,-64.49,-2.29,7.3032644.00,-8.53,-3.59,-3.34,-0.24,0.20,0.32,-64.49,-2.29,7.3032695.00,-8.50,-3.06,-4.03,-0.25,0.09,0.17,-64.31,-2.47,8.1532746.00,-8.89,-2.97,-3.18,-0.28,-0.19,-0.06,-64.31,-2.47,8.1532797.00,-8.30,-3.02,-4.22,0.05,0.12,-0.06,-64.31,-2.12,7.1332849.00,-9.24,-3.58,-2.64,-0.01,0.15,-0.02,-64.31,-2.12,7.1332900.00,-7.69,-3.38,-5.32,-0.10,0.01,0.14,-64.31,-2.12,7.1332951.00,-8.86,-2.81,-3.60,0.08,-0.19,0.21,-65.01,-1.41,9.5133002.00,-8.94,-2.82,-3.53,-0.18,0.07,0.22,-65.01,-1.41,9.5133054.00,-8.76,-2.50,-4.11,-0.34,0.02,0.04,-65.89,-3.35,7.9833105.00,-8.52,-2.34,-4.47,0.11,-0.10,-0.27,-65.89,-3.35,7.9833156.00,-8.70,-3.87,-2.81,0.43,-0.02,-0.24,-65.89,-3.35,7.9833207.00,-9.37,-2.68,-3.61,-0.07,0.19,-0.05,-63.61,-1.76,9.5133258.00,-7.80,-3.46,-5.10,-0.33,0.16,0.10,-63.61,-1.76,9.5133310.00,-7.77,-3.43,-5.06,-0.09,-0.15,0.14,-65.01,-3.88,9.5133361.00,-8.57,-3.00,-4.44,-0.06,-0.19,0.24,-65.01,-3.88,9.5133412.00,-8.94,-2.00,-3.54,0.13,0.06,0.13,-65.01,-3.88,9.5133463.00,-9.15,-1.68,-4.41,-0.34,0.15,-0.11,-65.01,-3.53,8.4933514.00,-7.73,-3.94,-4.49,0.00,-0.22,-0.34,-65.01,-3.53,8.4933566.00,-8.91,-1.66,-3.66,-0.15,-0.15,0.11,-64.84,-3.35,6.6233617.00,-9.31,-3.04,-3.08,-0.08,0.29,0.03,-64.84,-3.35,6.6233668.00,-8.02,-2.64,-4.52,-0.66,0.22,0.31,-64.84,-3.35,6.6233719.00,-8.91,-2.64,-4.18,0.07,-0.06,-0.01,-64.84,-4.05,9.3433771.00,-8.38,-3.09,-4.03,-0.00,-0.01,-0.09,-64.84,-4.05,9.3433822.00,-8.37,-2.86,-4.86,-0.04,-0.15,0.15,-65.01,-3.53,10.5333873.00,-8.73,-2.49,-4.03,-0.07,-0.24,0.07,-65.01,-3.53,10.5333925.00,-8.70,-2.27,-4.51,0.03,0.02,-0.11,-66.42,-5.29,8.8333976.00,-8.95,-2.80,-3.40,0.13,0.01,0.03,-66.42,-5.29,8.8334027.00,-8.67,-1.93,-4.72,-0.01,0.07,0.30,-66.42,-5.29,8.8334078.00,-8.53,-2.05,-3.97,0.06,-0.01,-0.06,-65.01,-4.58,9.8534130.00,-9.23,-1.54,-5.57,0.36,0.04,-0.44,-65.01,-4.58,9.8534181.00,-8.91,-3.02,-3.95,0.12,-0.24,-0.90,-65.19,-3.00,9.0034232.00,-7.68,-3.07,-1.04,-0.03,-0.87,-0.36,-65.19,-3.00,9.0034284.00,-3.80,-4.47,-2.92,-0.02,1.01,-0.05,-65.19,-3.00,9.0034335.00,-9.13,-3.80,-7.55,0.17,0.63,0.84,-63.43,-0.88,9.6834386.00,-4.98,-4.23,-2.90,0.07,0.39,-0.34,-63.43,-0.88,9.6834437.00,-10.00,-2.55,-5.56,-0.28,-0.13,0.68,-65.19,-3.70,10.3634489.00,-7.56,-3.10,-4.06,-0.14,0.01,0.15,-65.19,-3.70,10.3634540.00,-7.95,-2.72,-4.86,-0.04,-0.23,0.10,-65.72,-4.94,10.1934591.00,-8.42,-2.46,-4.53,-0.08,-0.12,-0.02,-65.72,-4.94,10.1934643.00,-8.81,-2.59,-3.54,0.27,-0.04,-0.12,-65.72,-4.94,10.1934694.00,-8.56,-3.85,-3.40,0.19,0.11,0.00,-65.72,-4.23,8.8334745.00,-8.81,-2.10,-4.65,-0.44,-0.10,0.14,-65.72,-4.23,8.8334797.00,-8.30,-3.27,-4.51,-0.48,-0.24,-0.19,-65.72,-4.23,8.8334848.00,-8.81,-3.80,-3.01,0.51,-0.10,-0.44,-66.42,-3.88,10.1934900.00,-8.42,-3.22,-4.69,-0.10,0.36,0.03,-66.42,-3.88,10.1934951.00,-8.34,-3.10,-4.36,-0.04,0.14,0.31,-65.54,-4.05,9.0035002.00,-8.55,-2.81,-4.25,-0.11,-0.07,0.23,-65.54,-4.05,9.0035053.00,-8.67,-2.58,-4.42,-0.13,0.05,0.10,-66.07,-5.64,9.1735105.00,-8.52,-2.30,-4.60,-0.03,-0.07,-0.09,-66.07,-5.64,9.1735156.00,-8.57,-2.68,-4.65,0.14,-0.05,-0.19,-66.07,-5.64,9.1735208.00,-8.65,-3.15,-3.22,0.22,0.09,-0.00,-66.95,-5.11,9.3435259.00,-8.99,-2.71,-3.85,-0.02,0.06,0.29,-66.95,-5.11,9.3435310.00,-9.70,-1.21,-1.39,-0.13,0.24,0.00,-66.95,-7.58,10.7035362.00,-6.51,-2.84,-7.25,0.09,-0.11,-0.94,-66.95,-7.58,10.7035413.00,-6.88,-3.41,-2.20,0.07,-0.63,-0.42,-66.95,-7.58,10.7035464.00,-7.13,-3.39,-3.36,0.10,0.36,0.04,-64.66,-3.17,10.1935516.00,-10.34,-3.28,-8.23,0.13,0.38,0.02,-64.66,-3.17,10.1935567.00,-8.10,-3.60,-4.31,0.19,-0.11,0.10,-65.89,-3.35,10.3635619.00,-9.04,-2.21,-3.81,0.09,-0.25,0.15,-65.89,-3.35,10.3635670.00,-8.58,-2.94,-4.53,0.04,-0.32,0.22,-65.89,-3.35,10.3635722.00,-8.98,-2.72,-3.21,-0.29,-0.14,0.12,-65.72,-5.29,8.8335773.00,-8.45,-2.28,-4.99,-0.23,-0.13,-0.11,-65.72,-5.29,8.8335824.00,-8.61,-2.89,-4.29,0.21,-0.15,-0.27,-64.66,-4.23,8.8335876.00,-8.72,-3.13,-3.48,0.18,0.02,-0.09,-64.66,-4.23,8.8335927.00,-8.01,-4.50,-3.00,0.09,0.23,0.17,-63.61,-4.23,9.1735979.00,-8.19,-1.23,-4.65,-0.47,0.38,0.66,-63.61,-4.23,9.1736030.00,-8.98,-2.20,-3.37,0.40,0.15,-0.08,-63.61,-4.23,9.1736081.00,-8.60,-2.65,-4.56,-0.19,-0.23,-0.46,-66.95,-5.11,10.3636133.00,-7.73,-3.68,-4.35,-0.18,-0.22,-0.31,-66.95,-5.11,10.3636184.00,-10.08,-2.44,-3.12,-0.40,-0.27,0.31,-65.89,-4.41,9.0036236.00,-8.66,-1.67,-3.67,-0.08,-0.01,0.31,-65.89,-4.41,9.0036287.00,-9.95,-2.03,-4.12,0.23,0.30,0.06,-65.89,-4.41,9.0036339.00,-8.06,-3.40,-4.21,-0.00,0.38,-0.21,-67.12,-4.58,9.5136390.00,-8.25,-2.30,-5.43,-0.19,-0.11,0.28,-67.12,-4.58,9.5136441.00,-8.95,-2.33,-4.23,0.07,-0.21,0.23,-66.07,-5.99,10.5336493.00,-8.98,-2.10,-3.86,-0.06,-0.08,0.13,-66.07,-5.99,10.5336544.00,-8.48,-1.85,-4.92,-0.22,-0.01,0.10,-66.07,-5.99,10.5336596.00,-8.46,-2.15,-4.69,-0.00,-0.03,-0.12,-66.24,-6.88,9.0036648.00,-8.21,-3.57,-4.07,0.30,0.07,-0.11,-66.24,-6.88,9.0036699.00,-9.07,-1.09,-3.68,0.10,0.06,0.17,-66.42,-7.76,9.8536751.00,-8.67,-1.84,-4.33,-0.26,0.03,0.31,-66.42,-7.76,9.8536802.00,-8.96,-2.06,-4.54,-0.35,0.25,-0.10,-66.42,-8.81,10.8736854.00,-7.49,-2.52,-5.68,-0.30,0.12,-0.14,-66.42,-8.81,10.8736905.00,-8.57,-2.29,-5.11,0.00,-0.46,0.27,-66.42,-8.81,10.8736957.00,-8.95,-1.18,-4.15,-0.09,-0.21,0.09,-66.77,-7.76,10.8737008.00,-8.28,-3.31,-3.77,0.16,0.12,-0.02,-66.77,-7.76,10.8737059.00,-9.16,-0.82,-4.29,-0.14,0.16,0.27,-66.77,-7.76,10.8737111.00,-8.62,-1.15,-5.09,-0.20,-0.05,0.01,-65.89,-8.99,10.3637163.00,-8.58,-2.05,-4.33,0.10,-0.10,-0.24,-65.89,-8.99,10.3637214.00,-8.71,-1.82,-4.39,-0.00,0.10,0.05,-65.54,-7.23,9.3437266.00,-8.71,-2.12,-4.45,-0.12,0.11,0.24,-65.54,-7.23,9.3437317.00,-8.95,-1.44,-4.12,-0.20,0.01,0.25,-66.95,-8.99,11.7237369.00,-8.75,-1.30,-4.89,-0.25,-0.02,0.12,-66.95,-8.99,11.7237420.00,-8.77,-1.13,-4.62,-0.07,-0.17,-0.06,-66.95,-8.99,11.7237472.00,-8.84,-1.34,-4.38,0.00,0.01,0.01,-65.19,-10.40,10.7037523.00,-8.78,-1.50,-4.83,0.03,0.07,0.05,-65.19,-10.40,10.7037575.00,-8.73,-1.42,-4.11,-0.00,0.10,0.13,-66.42,-11.28,11.5537626.00,-8.95,-0.53,-4.93,-0.24,0.05,0.30,-66.42,-11.28,11.5537678.00,-8.81,-1.13,-4.62,-0.18,-0.11,0.01,-66.42,-11.28,11.5537729.00,-8.95,-0.64,-4.67,-0.08,-0.06,-0.03,-67.30,-10.05,10.7037781.00,-8.61,-1.54,-4.94,0.01,-0.05,-0.09,-67.30,-10.05,10.7037833.00,-8.76,-1.15,-4.37,-0.00,-0.04,0.01,-67.12,-10.93,10.5337884.00,-8.63,-0.88,-4.20,-0.03,0.11,0.18,-67.12,-10.93,10.5337936.00,-9.25,0.38,-4.05,-0.12,0.14,0.35,-67.12,-10.93,10.5337987.00,-11.94,1.62,-2.23,0.00,0.87,-0.32,-65.36,-12.34,10.8738039.00,-6.67,-2.05,-7.47,0.01,1.23,-1.48,-65.36,-12.34,10.8738090.00,-5.99,-3.37,-7.87,0.25,0.10,-0.92,-64.84,-6.88,16.1438142.00,-8.76,-1.81,-6.16,0.20,-0.87,-0.92,-64.84,-6.88,16.1438193.00,-6.83,-5.15,-5.95,1.12,-0.46,-0.64,-64.31,-0.71,11.8938245.00,-7.00,-2.61,-5.13,0.60,-0.33,-0.48,-64.31,-0.71,11.8938296.00,-6.82,-4.97,-4.17,1.30,-0.48,-0.39,-64.31,-0.71,11.8938348.00,-9.18,-1.97,-3.43,0.34,-0.24,0.25,-63.26,0.71,7.8138400.00,-8.50,-3.50,-1.59,0.69,-0.10,0.13,-63.26,0.71,7.8138451.00,-10.49,-3.19,-4.94,-0.29,-0.08,0.57,-63.96,-0.35,8.4938503.00,-8.41,-3.09,-2.27,0.18,-0.15,-0.07,-63.96,-0.35,8.4938554.00,-8.63,-4.22,-3.95,-0.20,0.03,0.03,-63.96,-0.35,8.4938606.00,-8.42,-3.16,-3.93,-0.00,-0.10,-0.01,-63.78,-1.59,8.3238657.00,-8.55,-3.83,-3.50,-0.03,-0.05,-0.03,-63.78,-1.59,8.3238709.00,-8.87,-3.32,-3.26,0.02,-0.13,0.08,-64.84,-3.00,8.6638760.00,-8.18,-3.49,-4.17,-0.06,-0.02,0.07,-64.84,-3.00,8.6638812.00,-8.73,-2.87,-3.61,-0.04,-0.13,0.05,-64.13,-3.00,7.9838864.00,-8.28,-4.25,-3.36,-0.01,0.07,0.09,-64.13,-3.00,7.9838915.00,-9.21,-2.01,-3.85,-0.22,0.14,0.29,-64.13,-3.00,7.9838967.00,-8.87,-2.62,-3.68,-0.27,-0.02,0.02,-65.01,-3.53,8.1539018.00,-8.63,-2.94,-4.13,-0.40,-0.06,-0.07,-65.01,-3.53,8.1539070.00,-8.44,-2.70,-4.53,0.20,0.06,0.13,-65.89,-4.05,8.6639121.00,-8.53,-3.36,-3.77,0.30,0.11,0.18,-65.89,-4.05,8.6639173.00,-8.76,-2.91,-3.84,-0.17,-0.01,0.03,-65.89,-4.05,8.6639225.00,-8.57,-2.83,-4.34,-0.24,-0.02,0.03,-65.72,-3.88,6.4539276.00,-8.61,-3.20,-4.20,0.05,0.05,0.03,-65.72,-3.88,6.4539328.00,-8.62,-3.15,-3.94,0.28,0.07,0.18,-66.59,-5.11,7.9839379.00,-8.72,-2.99,-3.28,0.16,0.06,0.04,-66.59,-5.11,7.9839431.00,-9.35,-2.07,-3.53,0.17,0.01,-0.04,-66.59,-5.11,7.9839483.00,-9.09,-2.19,-3.74,-0.03,-0.25,-0.64,-65.72,-5.64,7.1339534.00,-7.84,-2.84,-0.85,-0.20,-0.66,-0.31,-65.72,-5.64,7.1339586.00,-5.46,-4.15,-4.59,-0.24,0.83,-0.29,-64.31,-2.12,7.4739638.00,-10.37,-4.19,-9.00,0.51,0.40,0.15,-64.31,-2.12,7.4739689.00,-7.34,-4.91,-3.20,0.52,-0.08,-0.15,-63.78,-1.94,8.3239741.00,-10.25,-2.03,-2.70,0.07,-0.32,0.30,-63.78,-1.94,8.3239792.00,-8.35,-3.79,-3.68,-0.13,-0.03,0.10,-63.78,-1.94,8.3239844.00,-8.56,-2.97,-4.30,-0.21,-0.09,0.13,-63.78,-3.00,9.3439896.00,-8.49,-3.26,-3.73,-0.10,-0.10,0.00,-63.78,-3.00,9.3439947.00,-8.30,-3.17,-4.12,0.15,-0.04,-0.11,-65.36,-3.53,7.8139999.00,-8.81,-3.81,-3.16,0.28,0.05,-0.01,-65.36,-3.53,7.8140051.00,-8.77,-3.96,-3.36,-0.05,0.15,0.04,-65.36,-3.53,7.8140102.00,-8.48,-2.98,-4.47,-0.40,0.05,0.17,-63.96,-3.53,8.4940154.00,-8.53,-2.87,-4.05,-0.02,-0.13,-0.14,-63.96,-3.53,8.4940206.00,-8.57,-3.33,-3.62,0.07,-0.02,-0.05,-64.13,-2.29,7.6440257.00,-8.41,-3.40,-3.85,-0.08,0.14,0.19,-64.13,-2.29,7.6440309.00,-8.70,-3.55,-3.50,-0.10,0.03,0.09,-64.13,-2.29,7.6440361.00,-8.65,-2.76,-3.97,-0.33,-0.01,0.07,-65.72,-4.94,7.8140412.00,-8.51,-3.22,-4.04,0.03,-0.07,-0.06,-65.72,-4.94,7.8140464.00,-8.50,-3.21,-3.96,0.05,-0.01,-0.02,-65.36,-4.94,8.4940516.00,-8.63,-3.14,-4.23,0.00,0.09,0.15,-65.36,-4.94,8.4940567.00,-8.57,-3.31,-4.08,-0.08,0.05,0.13,-65.36,-2.47,9.8540619.00,-8.65,-2.97,-3.88,-0.08,-0.03,0.07,-65.36,-2.47,9.8540671.00,-8.67,-2.82,-3.96,-0.17,-0.03,0.05,-65.36,-2.47,9.8540723.00,-8.60,-2.75,-4.47,-0.09,-0.05,-0.06,-65.01,-4.23,7.4740774.00,-8.64,-2.88,-3.86,-0.04,-0.05,-0.09,-65.01,-4.23,7.4740826.00,-8.60,-3.15,-4.25,-0.05,0.01,0.01,-65.19,-4.05,9.0040878.00,-8.72,-2.34,-4.08,-0.00,0.02,0.05,-65.19,-4.05,9.0040929.00,-8.50,-2.41,-4.29,-0.11,0.15,0.44,-65.19,-4.05,9.0040981.00,-8.79,-2.24,-4.43,0.12,0.10,0.20,-66.42,-4.94,10.8741033.00,-8.87,-1.37,-4.31,-0.01,0.07,-0.22,-66.42,-4.94,10.8741084.00,-8.91,-3.34,-3.46,-0.21,0.38,-0.47,-65.19,-3.70,7.9841136.00,-7.54,-2.98,-5.91,-0.39,0.22,-0.45,-65.19,-3.70,7.9841188.00,-7.34,-4.20,-4.80,0.15,-0.52,0.09,-64.84,-3.00,9.0041239.00,-8.70,-3.63,-4.33,-0.11,-0.42,0.21,-64.84,-3.00,9.0041291.00,-8.86,-2.16,-3.46,0.22,0.02,-0.09,-64.84,-3.00,9.0041343.00,-10.84,-1.75,-4.15,0.04,0.08,-0.02,-66.42,-3.17,8.8341395.00,-7.20,-4.22,-3.69,0.13,-0.25,-0.22,-66.42,-3.17,8.8341446.00,-8.14,-2.60,-0.77,0.24,-0.43,0.46,-65.72,-2.82,5.4441498.00,-10.31,-3.64,-5.01,-0.18,0.97,0.12,-65.72,-2.82,5.4441550.00,-6.76,-3.00,-3.92,0.09,0.12,0.02,-65.72,-2.82,5.4441601.00,-9.70,-2.43,-4.71,0.05,-0.11,0.22,-65.36,-4.23,8.4941653.00,-8.66,-2.81,-3.78,-0.03,0.01,0.05,-65.36,-4.23,8.4941705.00,-7.81,-2.84,-5.02,-0.04,-0.12,0.16,-64.66,-4.58,7.8141757.00,-9.07,-2.48,-3.53,-0.16,-0.16,0.09,-64.66,-4.58,7.8141808.00,-8.69,-1.59,-4.34,-0.47,-0.01,0.12,-64.66,-4.58,7.8141860.00,-8.45,-2.88,-4.52,-0.04,-0.06,-0.11,-65.36,-5.64,7.8141912.00,-8.91,-2.74,-3.43,0.18,0.04,0.00,-65.36,-5.64,7.8141964.00,-7.79,-5.62,-3.38,0.25,0.21,0.41,-64.49,-6.52,9.3442016.00,-8.03,-2.58,-5.20,0.20,0.33,0.34,-64.49,-6.52,9.3442067.00,-9.55,-0.87,-3.97,0.58,0.11,-0.81,-66.24,-7.58,9.6842119.00,-9.90,-3.70,-2.43,0.87,-0.10,-1.21,-66.24,-7.58,9.6842171.00,-6.78,-3.71,-5.26,-0.29,-0.25,-0.50,-66.24,-7.58,9.6842223.00,-12.67,-3.28,-1.83,-0.21,-1.07,0.23,-65.19,-1.94,8.6642275.00,-9.02,-1.85,-1.61,-0.02,-0.34,0.10,-65.19,-1.94,8.6642326.00,-11.16,-2.23,-2.22,0.05,-0.38,-0.06,-65.19,-4.41,6.9642378.00,-6.48,-4.62,-4.61,-0.15,0.20,-0.26,-65.19,-4.41,6.9642430.00,-6.39,-3.14,-1.98,-0.16,0.39,0.19,-65.19,-4.41,6.9642482.00,-10.37,-3.68,-9.28,-0.07,0.60,0.39,-65.54,-5.11,7.9842534.00,-6.71,-4.22,-4.08,0.49,0.14,-0.26,-65.54,-5.11,7.9842585.00,-9.58,-2.24,-4.02,0.10,-0.25,0.15,-66.77,-4.94,7.8142637.00,-8.69,-3.39,-3.96,0.01,0.02,-0.02,-66.77,-4.94,7.8142689.00,-8.90,-2.76,-3.52,-0.47,-0.01,0.20,-66.77,-4.94,7.8142741.00,-8.46,-2.23,-4.92,-0.21,0.00,0.02,-64.31,-5.29,7.8142793.00,-8.65,-2.24,-4.32,0.24,-0.03,-0.24,-64.31,-5.29,7.8142845.00,-8.66,-3.55,-3.28,0.24,0.05,-0.04,-63.96,-5.64,8.8342896.00,-8.90,-3.52,-3.23,0.02,0.06,0.13,-63.96,-5.64,8.8342948.00,-10.22,-0.88,-5.75,-0.31,0.05,0.28,-65.36,-4.94,9.8543000.00,-8.62,-3.22,-3.17,0.09,-0.12,-0.69,-65.36,-4.94,9.8543052.00,-7.13,-2.86,-2.82,-0.12,-0.04,0.04,-65.36,-4.94,9.8543104.00,-8.13,-3.85,-4.96,-0.09,0.60,0.24,-66.42,-3.88,7.8143156.00,-7.68,-3.00,-3.18,0.23,-0.09,-0.10,-66.42,-3.88,7.8143208.00,-9.00,-2.46,-3.70,-0.07,-0.26,-0.08,-64.66,-3.88,8.1543259.00,-8.37,-3.32,-4.19,0.02,-0.29,-0.02,-64.66,-3.88,8.1543311.00,-8.80,-2.37,-3.40,-0.06,0.02,0.15,-64.66,-3.88,8.1543363.00,-9.02,-2.31,-4.39,-0.07,0.19,0.17,-64.66,-5.29,8.1543415.00,-8.89,-2.65,-3.97,-0.20,-0.06,-0.01,-64.66,-5.29,8.1543467.00,-8.56,-2.94,-4.10,-0.08,-0.01,0.00,-66.07,-5.99,8.8343519.00,-8.64,-2.20,-4.09,0.01,0.07,0.14,-66.07,-5.99,8.8343571.00,-9.80,-1.91,-3.13,0.03,0.21,-0.06,-65.19,-6.52,8.3243623.00,-7.28,-3.55,-5.16,-0.16,0.02,-0.13,-65.19,-6.52,8.3243675.00,-8.81,-2.54,-3.69,-0.10,-0.15,0.19,-65.19,-6.52,8.3243726.00,-8.82,-2.20,-4.15,-0.23,-0.01,0.12,-65.36,-6.70,8.1543778.00,-8.66,-2.53,-4.34,0.02,-0.06,-0.09,-65.36,-6.70,8.1543830.00,-8.68,-3.14,-4.08,0.21,-0.03,-0.17,-66.07,-4.94,9.5143882.00,-8.59,-2.73,-3.23,0.18,0.09,0.14,-66.07,-4.94,9.5143934.00,-9.06,-2.74,-3.65,-0.00,0.04,0.20,-66.07,-4.94,9.5143986.00,-10.66,-0.36,-4.53,0.05,-0.17,0.12,-66.07,-7.76,9.1744038.00,-9.06,-2.97,-2.27,-0.03,-0.43,-0.49,-66.07,-7.76,9.1744090.00,-6.15,-3.76,-3.97,-0.08,0.30,-0.28,-65.19,-3.00,8.6644142.00,-6.85,-2.92,-5.00,0.29,0.56,0.11,-65.19,-3.00,8.6644194.00,-8.44,-2.78,-2.52,0.46,-0.04,-0.18,-65.19,-3.00,8.6644246.00,-8.76,-2.84,-4.48,0.17,-0.06,0.13,-64.84,-5.11,9.0044297.00,-8.25,-2.90,-4.30,0.00,-0.08,0.19,-64.84,-5.11,9.0044349.00,-8.99,-3.28,-2.89,-0.18,-0.05,0.13,-65.01,-4.58,8.8344401.00,-8.68,-1.89,-4.90,-0.39,0.01,0.08,-65.01,-4.58,8.8344453.00,-8.67,-3.09,-3.69,0.02,-0.10,-0.13,-65.89,-4.76,8.3244505.00,-8.38,-3.64,-3.35,-0.23,0.08,0.30,-65.89,-4.76,8.3244557.00,-8.75,-1.68,-4.86,-0.04,0.19,0.33,-65.89,-4.76,8.3244609.00,-9.17,-2.18,-4.10,0.21,-0.06,-0.45,-65.72,-6.70,9.8544661.00,-8.62,-3.24,-3.72,0.09,-0.09,-0.23,-65.72,-6.70,9.8544713.00,-7.49,-3.00,-5.12,-0.45,0.13,0.09,-66.24,-6.88,10.0244765.00,-7.98,-2.61,-5.24,-0.22,-0.10,0.35,-66.24,-6.88,10.0244817.00,-8.75,-1.58,-3.86,-0.06,-0.14,0.00,-66.24,-6.88,10.0244869.00,-8.92,-2.60,-3.35,0.24,0.06,0.04,-67.12,-7.05,8.4944921.00,-9.29,-1.95,-3.69,-0.05,0.14,0.16,-67.12,-7.05,8.4944973.00,-8.37,-2.20,-5.24,-0.16,-0.11,-0.18,-65.89,-8.64,9.3445025.00,-8.69,-2.34,-4.28,0.03,-0.14,-0.11,-65.89,-8.64,9.3445077.00,-8.74,-3.08,-3.75,0.10,0.10,0.09,-65.89,-8.64,9.3445129.00,-9.83,-0.98,-3.87,-0.04,0.09,0.17,-65.01,-8.46,9.8545180.00,-7.81,-2.59,-4.05,-0.16,0.22,-0.32,-65.01,-8.46,9.8545233.00,-7.33,-2.98,-5.45,-0.03,-0.05,-0.05,-65.54,-8.29,9.0045285.00,-10.90,-1.49,-3.47,0.02,-0.43,0.31,-65.54,-8.29,9.0045336.00,-8.70,-2.27,-4.60,0.03,-0.01,-0.00,-66.07,-8.11,9.8545388.00,-9.04,-1.35,-3.65,0.05,0.14,0.12,-66.07,-8.11,9.8545441.00,-9.22,-1.49,-4.86,-0.08,0.15,-0.09,-66.07,-8.11,9.8545493.00,-7.24,-2.91,-4.76,-0.12,-0.23,-0.35,-66.77,-10.23,9.8545544.00,-8.86,-1.99,-4.81,-0.30,-0.24,0.14,-66.77,-10.23,9.8545596.00,-9.14,-1.88,-3.65,0.13,0.16,-0.05,-66.59,-8.64,9.3445649.00,-9.53,-1.57,-3.85,-0.07,0.26,0.09,-66.59,-8.64,9.3445701.00,-7.84,-2.23,-5.22,-0.18,-0.11,0.23,-66.59,-8.64,9.3445752.00,-9.04,-0.89,-4.30,-0.09,-0.16,0.09,-64.66,-7.76,10.8745804.00,-9.09,-1.32,-3.64,0.06,-0.05,-0.03,-64.66,-7.76,10.8745857.00,-8.80,-1.54,-4.89,-0.00,0.15,0.22,-65.89,-9.70,9.3445908.00,-8.69,-1.27,-4.49,0.13,0.01,0.04,-65.89,-9.70,9.3445960.00,-10.74,-1.81,-4.38,0.47,-0.01,-0.33,-66.42,-9.87,7.8146012.00,-8.48,-2.11,-3.86,0.28,-0.24,-0.48,-66.42,-9.87,7.8146065.00,-8.25,-1.71,-1.72,-0.04,-0.16,-0.22,-66.42,-9.87,7.8146117.00,-7.90,-3.15,-5.68,0.18,0.37,-0.23,-66.59,-7.58,10.3646168.00,-9.09,-4.07,-6.31,0.58,0.27,-0.36,-66.59,-7.58,10.3646220.00,-9.19,-3.10,-4.11,0.45,-0.25,0.20,-65.19,-5.82,10.0246272.00,-8.25,-2.74,-4.55,-0.08,-0.04,-0.07,-65.19,-5.82,10.0246324.00,-8.24,-2.97,-4.73,-0.09,-0.27,0.08,-65.19,-5.82,10.0246376.00,-8.68,-2.71,-3.64,-0.10,-0.04,0.24,-65.01,-7.05,9.5146428.00,-8.73,-2.62,-4.69,0.18,0.42,0.46,-65.01,-7.05,9.5146480.00,-9.30,-1.53,-4.24,0.10,0.22,0.02,-65.89,-7.93,10.7046532.00,-7.70,-2.78,-5.38,-0.15,-0.22,-0.42,-65.89,-7.93,10.7046584.00,-9.48,-3.41,-2.60,-0.12,-0.41,-0.15,-65.89,-7.93,10.7046636.00,-8.54,-3.32,-4.09,-0.36,-0.01,0.17,-66.07,-7.05,9.1746689.00,-8.22,-1.74,-5.49,-0.10,0.22,0.40,-66.07,-7.05,9.1746741.00,-9.18,-1.41,-4.01,0.33,0.03,-0.35,-67.12,-9.87,9.8546793.00,-9.22,-3.09,-3.58,-0.25,0.09,-0.04,-67.12,-9.87,9.8546845.00,-7.59,-2.60,-5.17,-0.53,0.04,0.17,-65.01,-8.46,11.5546897.00,-10.21,-1.68,-4.34,-0.14,-0.25,0.33,-65.01,-8.46,11.5546949.00,-8.97,-1.25,-3.77,0.01,-0.14,0.01,-65.01,-8.46,11.5547001.00,-8.96,-1.77,-3.55,0.18,0.15,0.16,-66.07,-8.11,9.1747053.00,-8.87,-1.68,-4.38,-0.34,0.02,0.16,-66.07,-8.11,9.1747106.00,-8.23,-2.12,-5.27,-0.21,-0.15,-0.25,-64.31,-8.11,10.8747158.00,-8.78,-1.53,-4.18,0.05,-0.03,0.02,-64.31,-8.11,10.8747210.00,-8.71,-2.86,-3.70,0.12,0.15,0.10,-64.31,-8.11,10.8747262.00,-8.83,-1.07,-4.61,-0.30,0.04,0.28,-65.89,-7.93,10.7047314.00,-8.81,-1.47,-4.38,-0.03,-0.16,-0.07,-65.89,-7.93,10.7047366.00,-8.67,-2.21,-4.32,-0.04,-0.01,0.11,-67.12,-10.93,11.2147418.00,-8.56,-1.17,-5.09,0.09,0.21,0.20,-67.12,-10.93,11.2147470.00,-8.56,-0.62,-4.37,0.23,0.24,-0.09,-67.12,-10.93,11.2147522.00,-8.78,-3.43,-6.95,-0.03,0.37,-0.65,-66.42,-10.93,11.5547574.00,-6.72,-3.63,-8.27,0.41,0.14,-0.91,-66.42,-10.93,11.5547626.00,-6.41,-5.85,-3.80,0.95,-0.66,-0.85,-65.54,-6.52,12.4047679.00,-7.18,-1.49,-5.44,-0.24,0.45,-0.49,-65.54,-6.52,12.4047731.00,-10.06,-3.28,-0.82,0.78,-0.58,0.05,-64.84,-4.41,10.3647783.00,-9.41,-1.16,-3.05,-0.14,-0.04,0.10,-64.84,-4.41,10.3647835.00,-9.36,-2.36,-3.72,-0.25,0.08,0.03,-64.31,-2.47,9.5147887.00,-8.34,-3.52,-3.51,-0.39,-0.03,0.11,-64.31,-2.47,9.5147939.00,-8.17,-2.17,-4.76,-0.28,0.04,0.16,-64.31,-2.47,9.5147992.00,-8.45,-2.73,-4.54,-0.11,0.01,-0.01,-64.13,-4.76,11.7248044.00,-8.55,-3.00,-4.22,-0.04,-0.10,0.03,-64.13,-4.76,11.7248096.00,-8.55,-2.57,-4.62,-0.06,-0.00,0.06,-65.89,-5.82,10.3648149.00,-8.54,-2.95,-3.98,0.00,-0.06,-0.02,-65.89,-5.82,10.3648204.00,-8.57,-2.58,-4.63,-0.00,-0.02,0.02,-65.89,-5.82,10.3648254.00,-8.59,-2.60,-4.24,0.07,-0.13,-0.01,-64.66,-2.82,9.1748305.00,-8.63,-2.91,-4.08,0.14,-0.18,0.01,-64.66,-2.82,9.1748356.00,-8.57,-2.47,-4.29,-0.01,0.01,0.02,-64.49,-5.47,7.9848406.00,-8.60,-2.75,-3.99,0.10,0.00,-0.05,-64.49,-5.47,7.9848457.00,-8.81,-2.66,-3.76,0.09,0.06,0.04,-64.49,-5.47,7.9848507.00,-8.93,-3.01,-3.94,-0.08,0.13,0.24,-66.24,-6.17,9.0048558.00,-8.57,-2.43,-4.25,-0.24,-0.06,0.05,-66.24,-6.17,9.0048609.00,-8.51,-2.63,-4.68,-0.08,-0.08,-0.13,-65.01,-7.05,9.8548659.00,-8.74,-2.61,-4.06,0.21,-0.07,-0.24,-65.01,-7.05,9.8548710.00,-8.72,-2.81,-3.32,0.27,0.05,-0.13,-65.01,-7.05,9.8548761.00,-8.34,-3.23,-4.32,-0.35,0.43,-0.15,-64.13,-4.41,9.3448811.00,-7.26,-3.00,-5.56,-0.38,0.11,0.20,-64.13,-4.41,9.3448862.00,-11.17,-1.91,-2.62,0.14,-0.50,0.33,-64.66,-7.40,9.5148913.00,-8.79,-2.63,-4.28,0.11,0.10,0.04,-64.66,-7.40,9.5148964.00,-8.69,-3.60,-3.28,-0.00,0.07,0.19,-64.66,-7.40,9.5149014.00,-8.68,-2.02,-4.82,-0.08,0.00,-0.02,-65.19,-7.58,10.0249065.00,-9.90,-1.58,-3.07,0.05,0.02,-0.43,-65.19,-7.58,10.0249115.00,-7.56,-2.92,-5.71,-0.16,0.01,-0.31,-65.01,-6.35,9.5149166.00,-7.61,-3.62,-4.89,0.09,-0.53,0.03,-65.01,-6.35,9.5149217.00,-9.11,-1.53,-2.99,-0.05,-0.02,0.27,-65.89,-6.52,8.3249267.00,-9.37,-1.50,-4.47,0.11,0.24,0.20,-65.89,-6.52,8.3249318.00,-8.93,-1.78,-4.96,0.11,0.07,-0.46,-65.89,-6.52,8.3249369.00,-8.23,-2.14,-2.40,-0.04,-0.86,-0.27,-65.01,-5.29,9.1749420.00,-7.27,-3.17,-2.26,0.03,0.39,-0.07,-65.01,-5.29,9.1749470.00,-8.32,-4.41,-7.99,0.36,0.74,-0.05,-65.01,-5.29,9.1749521.00,-6.88,-3.62,-3.97,0.47,0.07,-0.23,-65.19,-4.76,10.0249572.00,-9.66,-2.37,-3.82,0.07,-0.27,0.29,-65.19,-4.76,10.0249622.00,-8.69,-3.11,-3.98,-0.06,0.04,0.03,-65.72,-4.58,8.4949673.00,-8.80,-2.72,-3.43,-0.35,-0.02,0.19,-65.72,-4.58,8.4949724.00,-8.66,-2.23,-4.84,-0.14,-0.01,-0.06,-66.59,-7.23,8.6649775.00,-8.52,-3.07,-4.28,0.22,0.03,-0.23,-66.59,-7.23,8.6649825.00,-8.89,-3.21,-2.90,0.24,0.10,0.09,-66.59,-7.23,8.6649876.00,-8.61,-3.34,-3.40,-0.30,0.23,0.36,-65.72,-6.70,8.8349927.00,-9.20,-1.36,-4.76,-0.33,0.14,0.23,-65.72,-6.70,8.8349978.00,-7.38,-3.56,-5.17,-0.30,0.05,-0.53,-64.66,-5.99,9.5150028.00,-7.73,-3.52,-5.18,-0.23,-0.27,-0.23,-64.66,-5.99,9.5150079.00,-9.16,-2.32,-3.72,0.06,-0.14,0.18,-64.66,-5.99,9.5150130.00,-8.75,-2.77,-3.33,0.13,0.19,0.42,-65.01,-6.70,8.1550181.00,-9.00,-2.09,-3.36,0.14,0.14,0.06,-65.01,-6.70,8.1550231.00,-9.61,-1.49,-3.75,-0.23,-0.06,-0.27,-65.19,-7.58,10.3650282.00,-7.80,-3.44,-5.48,-0.35,-0.20,-0.15,-65.19,-7.58,10.3650333.00,-8.75,-2.32,-4.30,0.00,-0.15,0.12,-65.19,-7.58,10.3650384.00,-8.86,-1.95,-3.92,0.34,0.32,0.57,-66.24,-7.23,11.0450434.00,-9.01,-2.56,-4.57,0.06,0.21,-0.09,-66.24,-7.23,11.0450485.00,-7.57,-3.09,-5.52,-0.13,0.11,-0.27,-65.54,-6.17,10.0250536.00,-9.89,-2.09,-3.57,0.09,-0.28,0.23,-65.54,-6.17,10.0250587.00,-9.13,-2.17,-3.11,-0.06,-0.11,0.15,-65.54,-6.17,10.0250638.00,-8.60,-2.06,-5.00,-0.11,-0.04,-0.02,-66.24,-8.29,10.3650688.00,-8.72,-1.96,-4.57,-0.10,-0.10,-0.15,-66.24,-8.29,10.3650739.00,-8.32,-2.80,-4.20,0.20,0.04,0.04,-64.66,-7.05,9.1750790.00,-9.23,-2.25,-3.54,0.20,0.10,0.14,-64.66,-7.05,9.1750841.00,-10.40,-0.01,-4.96,0.05,-0.06,0.10,-64.66,-7.05,9.1750891.00,-9.79,-1.20,-2.78,-0.00,-0.50,-0.33,-66.77,-8.11,9.8550942.00,-7.72,-3.45,-3.57,-0.00,-0.05,-0.71,-66.77,-8.11,9.8550993.00,-5.51,-3.69,-3.42,0.10,0.50,-0.08,-66.24,-6.17,8.3251044.00,-12.86,-2.47,-6.75,0.39,-0.11,0.14,-66.24,-6.17,8.3251095.00,-8.11,-3.35,-3.62,0.23,-0.21,-0.06,-65.36,-4.94,10.5351145.00,-9.54,-1.92,-3.29,-0.03,-0.13,0.02,-65.36,-4.94,10.5351197.00,-8.58,-3.06,-4.27,-0.01,-0.12,0.04,-65.36,-4.94,10.5351248.00,-9.09,-2.80,-3.81,-0.08,-0.08,0.03,-64.84,-5.47,10.0251298.00,-8.73,-2.68,-4.13,-0.12,-0.08,0.03,-64.84,-5.47,10.0251349.00,-8.74,-2.70,-3.80,-0.06,-0.06,0.01,-64.84,-5.47,10.0251400.00,-8.66,-3.17,-3.67,-0.06,0.00,0.09,-67.65,-4.05,7.9851451.00,-8.90,-0.99,-4.21,-0.34,0.13,0.38,-67.65,-4.05,7.9851502.00,-8.72,-3.05,-3.99,-0.01,0.01,-0.00,-67.12,-7.05,9.8551553.00,-9.10,-1.82,-4.04,-0.29,-0.16,0.02,-67.12,-7.05,9.8551604.00,-9.36,-2.30,-3.88,-0.05,0.10,-0.10,-66.59,-6.17,9.3451654.00,-8.83,-2.76,-3.95,-0.07,0.41,-0.17,-66.59,-6.17,9.3451705.00,-7.97,-2.71,-5.30,-0.11,-0.05,0.23,-66.59,-6.17,9.3451756.00,-8.94,-1.98,-3.73,-0.14,-0.32,0.12,-66.77,-7.40,9.8551807.00,-8.71,-1.78,-4.47,0.02,-0.01,-0.02,-66.77,-7.40,9.8551858.00,-9.68,-2.42,-3.43,0.18,0.19,0.19,-67.47,-8.81,9.8551909.00,-8.95,-2.32,-3.93,-0.02,0.23,0.15,-67.47,-8.81,9.8551959.00,-8.41,-2.42,-4.93,0.06,-0.20,-0.27,-67.47,-8.81,9.8552010.00,-8.77,-2.29,-3.86,0.05,-0.11,-0.11,-66.59,-9.70,10.7052061.00,-8.60,-3.58,-3.34,0.17,0.14,0.28,-66.59,-9.70,10.7052112.00,-10.02,-0.60,-3.04,0.12,0.30,0.32,-65.72,-9.87,11.5552163.00,-7.71,-2.53,-8.13,-0.38,0.94,-1.05,-65.72,-9.87,11.5552214.00,-5.86,-4.38,-7.67,0.02,0.18,-1.00,-65.72,-9.87,11.5552265.00,-7.03,-3.65,-7.13,0.25,-0.41,0.03,-65.36,-5.64,11.5552316.00,-7.40,-3.02,-3.32,0.16,-0.14,-0.03,-65.36,-5.64,11.5552367.00,-8.60,-2.05,-3.00,-0.12,-0.25,0.09,-65.72,-5.29,11.5552418.00,-8.97,-2.30,-4.76,0.28,-0.05,0.01,-65.72,-5.29,11.5552469.00,-10.00,-1.96,-2.91,0.23,-0.23,-0.11,-65.72,-5.29,11.5552520.00,-8.00,-3.90,-5.03,0.32,-0.08,-0.04,-66.95,-4.76,11.7252571.00,-9.68,-2.44,-3.23,0.28,-0.13,0.17,-66.95,-4.76,11.7252622.00,-8.50,-3.15,-4.23,0.03,0.01,-0.08,-66.95,-4.76,11.7252673.00,-8.52,-3.09,-3.93,0.11,0.02,-0.02,-66.95,-4.76,11.7252724.00,-8.59,-2.96,-4.36,-0.06,0.05,0.03,-66.95,-4.76,11.7252775.00,-8.56,-3.09,-4.10,-0.02,-0.00,-0.01,-65.72,-3.53,9.8552826.00,-8.57,-3.00,-3.83,0.04,0.02,-0.01,-65.72,-3.53,9.8552876.00,-8.26,-3.08,-4.47,-0.03,0.03,0.03,-65.36,-4.58,10.8752927.00,-8.58,-3.00,-3.94,0.10,0.01,0.06,-65.36,-4.58,10.8752978.00,-8.48,-2.89,-4.33,-0.05,0.05,0.04,-66.24,-3.35,11.7253029.00,-8.36,-3.10,-4.20,-0.01,-0.06,-0.04,-66.24,-3.35,11.7253080.00,-8.54,-2.87,-4.29,-0.00,-0.06,0.01,-66.24,-3.35,11.7253131.00,-8.28,-3.15,-4.49,0.05,-0.15,-0.04,-65.36,-4.94,10.5353182.00,-8.53,-3.01,-4.00,0.12,-0.21,0.07,-65.36,-4.94,10.5353233.00,-9.11,-2.88,-3.30,0.10,-0.19,0.05,-65.36,-4.94,10.5353284.00,-9.13,-3.22,-3.36,0.06,0.03,0.08,-65.54,-5.47,8.3253335.00,-8.83,-2.78,-3.54,-0.45,0.06,0.36,-65.54,-5.47,8.3253386.00,-8.47,-2.59,-4.94,-0.03,-0.09,-0.11,-65.54,-5.11,9.0053437.00,-8.59,-3.18,-3.71,0.13,0.05,0.02,-65.54,-5.11,9.0053488.00,-9.57,-2.11,-4.41,0.13,0.32,0.44,-65.19,-8.64,10.0253539.00,-8.40,-2.07,-3.14,0.56,0.08,-0.22,-65.19,-8.64,10.0253590.00,-8.73,-3.23,-4.14,0.43,-0.10,-0.52,-65.19,-8.64,10.0253641.00,-8.75,-4.29,-3.20,0.13,-0.00,0.10,-66.77,-5.29,9.5153692.00,-8.80,-2.18,-3.88,-0.53,0.25,0.67,-66.77,-5.29,9.5153743.00,-9.92,-1.18,-3.54,-0.34,0.25,0.00,-66.07,-8.11,11.2153794.00,-7.14,-3.42,-5.40,-0.36,-0.03,-0.40,-66.07,-8.11,11.2153845.00,-11.83,-2.80,-4.03,-0.09,-0.66,0.32,-66.07,-8.11,11.2153897.00,-8.81,-1.73,-2.77,0.06,-0.16,0.25,-66.07,-6.35,9.1753948.00,-9.22,-2.69,-3.84,0.37,0.27,-0.12,-66.07,-6.35,9.1753999.00,-7.08,-3.46,-5.40,0.06,0.26,0.02,-65.19,-7.23,10.0254050.00,-7.70,-2.80,-5.66,0.05,-0.25,0.40,-65.19,-7.23,10.0254101.00,-9.07,-2.35,-2.78,-0.12,-0.07,0.16,-65.19,-7.23,10.0254152.00,-8.60,-2.01,-4.87,-0.17,0.02,-0.01,-67.12,-9.52,9.8554203.00,-8.72,-1.92,-4.56,0.09,-0.06,-0.28,-67.12,-9.52,9.8554254.00,-8.62,-3.23,-3.80,0.27,0.02,-0.08,-65.89,-8.29,10.0254305.00,-9.06,-2.97,-3.16,0.14,0.08,0.12,-65.89,-8.29,10.0254356.00,-9.06,-2.38,-4.09,-0.19,0.19,0.18,-65.89,-8.29,10.0254407.00,-7.94,-2.24,-5.36,-0.24,0.14,-0.19,-66.77,-10.23,10.5354458.00,-7.93,-2.57,-5.14,-0.08,-0.25,0.17,-66.77,-10.23,10.5354509.00,-8.40,-1.68,-5.39,-0.12,-0.01,0.11,-66.77,-9.52,8.8354560.00,-9.57,-2.04,-4.23,0.08,0.10,0.10,-66.77,-9.52,8.8354611.00,-9.33,-2.13,-3.78,-0.02,0.19,0.24,-66.77,-9.52,8.8354662.00,-8.65,-1.76,-4.87,-0.17,-0.08,-0.04,-64.31,-9.52,11.2154714.00,-8.62,-1.98,-4.71,-0.04,-0.08,-0.08,-64.31,-9.52,11.2154765.00,-8.51,-2.36,-4.37,0.04,0.01,-0.01,-65.54,-10.40,10.0254816.00,-8.91,-1.73,-3.86,0.04,0.11,0.13,-65.54,-10.40,10.0254867.00,-8.75,-1.26,-4.94,-0.30,0.03,0.20,-65.72,-10.23,10.8754918.00,-8.58,-1.87,-4.58,-0.06,-0.09,-0.08,-65.72,-10.23,10.8754969.00,-8.68,-2.03,-4.12,0.06,-0.03,-0.01,-65.72,-10.23,10.8755020.00,-9.02,-2.09,-3.50,0.05,0.13,0.17,-67.30,-12.87,11.0455072.00,-8.77,-1.35,-5.19,-0.22,0.06,0.16,-67.30,-12.87,11.0455123.00,-8.73,-1.86,-4.55,-0.05,-0.10,-0.04,-66.59,-12.52,12.0655174.00,-8.60,-1.86,-4.25,0.04,-0.04,-0.02,-66.59,-12.52,12.0655225.00,-9.69,-0.91,-2.60,-0.05,0.22,0.35,-66.59,-12.52,12.0655276.00,-13.43,1.76,-0.68,-0.09,1.20,-0.43,-65.72,-14.46,11.8955327.00,-5.00,-4.71,-8.45,0.04,0.58,-1.27,-65.72,-14.46,11.8955378.00,-6.45,-2.83,-9.53,-0.19,-0.15,-0.60,-65.36,-7.05,16.3155429.00,-6.91,-3.70,-3.93,0.15,-0.59,0.02,-65.36,-7.05,16.3155480.00,-10.22,0.70,-4.01,-0.24,-0.59,0.93,-65.36,-7.05,16.3155531.00,-9.67,0.51,-5.20,-0.41,0.03,-0.09,-67.30,-9.34,14.7855583.00,-7.97,-2.33,-4.55,-0.38,-0.70,-0.24,-67.30,-9.34,14.7855634.00,-8.57,-2.65,-4.08,-0.09,-0.37,-0.61,-66.24,-9.70,12.0655685.00,-8.72,-2.13,-3.54,-0.03,-0.10,-0.46,-66.24,-9.70,12.0655736.00,-7.72,-3.67,-6.81,0.21,0.24,-1.08,-66.24,-9.70,12.0655787.00,-8.09,-3.44,-4.43,0.23,-0.21,-0.13,-65.72,-3.17,11.2155838.00,-8.53,-3.18,-3.80,0.19,-0.28,-0.06,-65.72,-3.17,11.2155889.00,-8.47,-3.05,-4.49,-0.11,-0.04,0.06,-66.24,-3.00,10.3655941.00,-8.42,-3.38,-4.01,0.19,-0.18,-0.04,-66.24,-3.00,10.3655992.00,-8.79,-2.77,-4.00,0.01,-0.11,-0.06,-66.24,-3.00,10.3656043.00,-8.41,-3.78,-3.64,0.13,-0.04,-0.09,-64.84,-1.59,8.3256094.00,-8.45,-3.09,-4.50,-0.02,-0.03,0.03,-64.84,-1.59,8.3256145.00,-8.21,-3.53,-4.03,0.08,-0.09,-0.16,-64.66,-1.06,8.8356196.00,-8.59,-3.46,-3.97,0.06,-0.16,-0.06,-64.66,-1.06,8.8356248.00,-9.53,-3.51,-4.07,0.11,-0.24,-0.11,-64.66,-1.76,7.1356299.00,-8.72,-3.17,-3.54,0.03,-0.13,-0.01,-64.66,-1.76,7.1356350.00,-8.29,-4.27,-3.00,0.07,-0.02,0.08,-64.66,-1.76,7.1356401.00,-8.56,-3.13,-4.10,-0.06,0.09,0.16,-64.84,-0.88,8.3256452.00,-8.57,-3.44,-3.71,-0.09,-0.02,0.05,-64.84,-0.88,8.3256504.00,-8.55,-3.07,-4.04,-0.07,-0.03,-0.09,-65.19,-4.05,9.6856555.00,-9.57,-3.10,-3.46,0.01,0.25,-0.13,-65.19,-4.05,9.6856606.00,-7.41,-4.22,-5.05,0.03,-0.04,0.13,-65.19,-4.05,9.6856657.00,-9.05,-2.80,-3.47,-0.06,-0.25,0.33,-64.13,-1.59,10.3656709.00,-8.63,-2.47,-4.28,-0.23,0.05,0.11,-64.13,-1.59,10.3656760.00,-8.34,-3.06,-4.57,0.05,-0.06,-0.12,-64.84,-4.05,8.3256811.00,-8.33,-3.34,-4.10,0.22,-0.03,-0.13,-64.84,-4.05,8.3256862.00,-9.11,-2.90,-3.58,-0.06,0.12,0.20,-64.84,-4.05,8.3256913.00,-8.75,-3.23,-3.56,-0.20,0.15,0.16,-64.84,-4.05,8.3256965.00,-9.02,-2.56,-3.98,-0.17,0.12,-0.12,-64.84,-4.05,8.3257016.00,-7.32,-3.64,-5.39,-0.09,-0.04,-0.09,-64.84,-4.05,9.0057067.00,-8.80,-2.69,-3.94,-0.00,-0.20,0.04,-64.84,-4.05,9.0057118.00,-8.37,-3.33,-3.79,0.00,-0.03,0.15,-64.84,-4.05,9.0057169.00,-8.68,-3.50,-3.86,0.01,-0.00,-0.04,-64.13,-4.05,7.9857221.00,-8.48,-2.66,-4.63,-0.17,-0.01,0.02,-64.13,-4.05,7.9857272.00,-8.55,-3.06,-4.15,0.09,0.03,0.02,-65.01,-3.88,9.5157323.00,-9.57,-2.82,-3.42,0.08,0.12,0.01,-65.01,-3.88,9.5157374.00,-7.49,-3.70,-5.56,-0.33,0.13,-0.11,-65.01,-3.88,9.5157425.00,-7.99,-2.81,-4.89,-0.08,-0.47,0.09,-65.19,-3.70,9.6857477.00,-8.96,-2.24,-2.70,0.00,-0.28,0.00,-65.19,-3.70,9.6857528.00,-8.46,-2.82,-4.27,0.08,0.06,-0.03,-65.72,-4.94,7.4757579.00,-8.54,-2.54,-3.75,0.01,0.11,0.19,-65.72,-4.94,7.4757630.00,-8.95,-2.56,-4.05,-0.17,0.07,0.08,-63.43,-5.11,9.0057682.00,-8.60,-2.66,-4.33,0.03,-0.12,-0.11,-63.43,-5.11,9.0057733.00,-8.74,-2.44,-4.04,-0.05,-0.12,-0.14,-63.43,-5.11,9.0057784.00,-8.60,-3.05,-3.52,0.04,0.11,0.16,-64.31,-4.58,10.1957835.00,-8.69,-2.43,-4.07,0.02,0.08,0.19,-64.31,-4.58,10.1957887.00,-9.54,-1.81,-3.54,-0.09,0.18,-0.12,-63.96,-6.70,9.5157938.00,-7.73,-2.99,-5.17,-0.14,0.04,-0.23,-63.96,-6.70,9.5157989.00,-11.04,-2.55,-4.29,0.07,-0.38,0.23,-63.96,-6.70,9.5158040.00,-9.09,-1.98,-3.20,-0.08,-0.10,0.06,-63.96,-4.58,8.8358092.00,-8.59,-2.87,-4.13,0.09,0.04,0.07,-63.96,-4.58,8.8358143.00,-9.42,-2.56,-3.39,0.07,0.07,-0.03,-64.13,-6.17,7.9858194.00,-8.50,-2.48,-4.67,-0.16,0.03,-0.27,-64.13,-6.17,7.9858246.00,-9.45,-2.84,-3.51,-0.20,-0.28,0.05,-64.66,-5.29,8.8358297.00,-8.86,-1.73,-3.82,-0.19,-0.02,0.06,-64.66,-5.29,8.8358348.00,-9.38,-2.17,-3.74,0.07,0.09,-0.02,-64.66,-5.29,8.8358399.00,-8.24,-2.91,-5.03,-0.14,0.17,-0.26,-63.43,-5.82,9.0058451.00,-9.97,-2.95,-4.83,-0.09,-0.30,0.13,-63.43,-5.82,9.0058502.00,-8.83,-2.53,-4.13,-0.01,0.05,0.19,-63.61,-5.64,8.8358553.00,-8.74,-2.26,-4.65,0.22,0.24,0.39,-63.61,-5.64,8.8358604.00,-9.40,-1.82,-4.40,0.07,0.26,0.01,-63.61,-5.64,8.8358656.00,-7.43,-2.53,-5.97,-0.15,0.20,-0.39,-65.01,-7.05,8.4958707.00,-10.33,-2.17,-2.32,0.11,-0.56,0.14,-65.01,-7.05,8.4958758.00,-8.98,-2.05,-3.90,-0.08,-0.15,0.07,-64.49,-6.17,10.0258809.00,-11.61,0.29,-4.16,0.02,-0.02,-0.07,-64.49,-6.17,10.0258861.00,-8.10,-3.40,-4.49,0.23,-0.09,-0.74,-64.49,-6.17,10.0258912.00,-6.74,-3.03,-2.84,0.24,-0.80,0.11,-64.13,-5.82,7.9858963.00,-8.06,-2.82,-4.29,0.10,0.71,-0.03,-64.13,-5.82,7.9859015.00,-10.16,-3.33,-6.25,0.56,0.33,-0.24,-64.13,-5.47,8.3259066.00,-8.49,-3.22,-3.91,0.01,-0.20,0.15,-64.13,-5.47,8.3259117.00,-9.45,-1.95,-3.06,0.04,-0.14,0.11,-64.13,-5.47,8.3259169.00,-8.63,-3.16,-4.30,-0.08,0.09,0.02,-64.49,-4.76,7.3059220.00,-8.91,-2.66,-3.72,-0.07,-0.03,0.05,-64.49,-4.76,7.3059272.00,-8.60,-2.59,-4.42,-0.06,0.02,-0.12,-64.84,-6.52,7.3059323.00,-8.67,-3.59,-3.44,-0.11,0.08,0.26,-64.84,-6.52,7.3059374.00,-8.56,-1.52,-5.18,-0.17,0.13,0.36,-64.84,-6.52,7.3059426.00,-9.07,-2.10,-3.45,0.15,-0.00,-0.19,-62.20,-5.99,8.4959477.00,-8.72,-2.76,-4.04,-0.01,0.10,-0.15,-62.20,-5.99,8.4959528.00,-7.68,-3.44,-4.77,-0.28,0.07,0.01,-64.84,-4.41,7.9859580.00,-9.84,-2.45,-5.01,-0.21,-0.14,0.25,-64.84,-4.41,7.9859631.00,-8.58,-2.60,-3.92,0.02,0.01,0.09,-64.66,-6.70,8.4959682.00,-9.16,-2.41,-3.53,-0.01,0.09,0.24,-64.66,-6.70,8.4959734.00,-8.78,-1.64,-4.42,-0.21,-0.07,0.01,-64.66,-6.70,8.4959785.00,-8.66,-1.96,-4.61,0.01,-0.06,-0.10,-65.01,-8.81,9.5159837.00,-8.62,-2.54,-3.99,0.13,0.03,-0.01,-65.01,-8.81,9.5159888.00,-8.85,-2.55,-3.78,0.04,0.08,0.18,-65.36,-7.05,9.1759939.00,-8.90,-1.38,-4.48,-0.15,-0.04,0.09,-65.36,-7.05,9.1759991.00,-8.63,-2.29,-4.50,0.03,-0.02,0.09,-65.36,-7.05,9.1760042.00,-8.72,-1.76,-4.43,0.16,0.06,0.10,-64.66,-6.70,9.5160093.00,-10.28,-1.15,-3.38,0.14,-0.23,-0.13,-64.66,-6.70,9.5160145.00,-8.53,-1.94,-3.02,-0.04,-0.60,-0.33,-65.89,-7.58,7.3060196.00,-9.79,-2.59,-1.31,-0.04,-0.44,-0.26,-65.89,-7.58,7.3060248.00,-6.14,-3.71,-8.10,0.15,0.87,-0.22,-65.89,-7.58,7.3060299.00,-9.35,-2.87,-4.19,0.54,-0.21,-0.02,-62.90,-3.88,8.4960351.00,-9.15,-2.42,-3.17,0.05,-0.26,-0.25,-62.90,-3.88,8.4960402.00,-9.63,-3.29,-4.03,-0.05,-0.19,-0.15,-62.90,-4.58,6.7960454.00,-8.76,-3.22,-3.53,0.05,-0.08,0.01,-62.90,-4.58,6.7960505.00,-8.70,-1.40,-4.43,-0.28,0.47,0.73,-63.26,-4.94,9.1760556.00,-9.11,-1.93,-3.53,0.07,0.21,0.09,-63.26,-4.94,9.1760608.00,-8.77,-2.79,-3.97,-0.04,0.17,-0.28,-63.26,-4.94,9.1760659.00,-7.66,-3.03,-4.94,-0.13,-0.02,0.01,-63.61,-4.58,9.8560711.00,-8.58,-2.56,-4.52,-0.16,-0.03,0.22,-63.61,-4.58,9.8560762.00,-8.89,-1.87,-4.11,-0.24,-0.00,0.15,-63.61,-4.58,9.8560814.00,-8.41,-2.34,-4.85,-0.02,-0.03,-0.14,-63.96,-7.05,9.5160865.00,-8.64,-2.79,-4.08,0.19,0.06,0.01,-63.96,-7.05,9.5160916.00,-8.88,-2.40,-3.43,0.04,0.08,0.23,-64.31,-7.76,9.5160968.00,-8.53,-1.65,-4.40,-0.37,-0.01,0.28,-64.31,-7.76,9.5161019.00,-8.86,-1.83,-4.48,-0.21,-0.13,-0.06,-64.31,-8.11,9.5161071.00,-8.79,-2.38,-4.25,-0.04,0.02,0.04,-64.31,-8.11,9.5161123.00,-8.72,-1.73,-4.99,-0.02,0.11,0.16,-64.31,-8.11,9.5161174.00,-9.53,-0.68,-3.68,0.13,0.09,-0.05,-65.89,-8.64,9.0061226.00,-9.53,-2.59,-3.60,0.37,-0.05,-0.56,-65.89,-8.64,9.0061277.00,-8.09,-1.70,-2.06,0.01,-0.02,-0.14,-64.13,-7.23,9.6861329.00,-8.01,-2.54,-4.64,0.02,0.30,0.07,-64.13,-7.23,9.6861380.00,-7.61,-3.63,-8.04,0.62,0.38,-0.32,-64.13,-7.23,9.6861432.00,-9.09,-2.87,-3.79,0.29,-0.16,0.03,-65.01,-5.99,9.8561483.00,-8.84,-2.10,-3.91,-0.06,-0.07,-0.03,-65.01,-5.99,9.8561534.00,-8.28,-2.90,-4.85,-0.05,-0.20,0.08,-62.73,-6.88,11.0461586.00,-8.54,-2.29,-4.67,-0.07,-0.07,0.05,-62.73,-6.88,11.0461637.00,-8.64,-2.46,-3.94,0.21,0.05,-0.00,-62.73,-6.88,11.0461689.00,-9.19,-2.14,-3.34,-0.12,0.23,0.21,-63.08,-5.47,8.3261740.00,-8.64,-2.08,-5.14,-0.33,0.18,0.09,-63.08,-5.47,8.3261792.00,-9.49,-2.69,-4.50,0.01,-0.14,0.09,-64.13,-5.82,11.0461843.00,-8.87,-2.09,-4.01,-0.06,-0.06,0.18,-64.13,-5.82,11.0461895.00,-9.07,-1.67,-4.30,-0.21,0.09,0.25,-65.19,-8.64,10.0261946.00,-8.33,-2.34,-5.14,-0.05,-0.18,-0.18,-65.19,-8.64,10.0261998.00,-8.86,-2.24,-3.65,0.28,-0.02,-0.21,-65.19,-8.64,10.0262049.00,-8.78,-2.36,-4.71,-0.06,0.29,-0.28,-63.96,-7.05,10.8762101.00,-7.74,-3.03,-5.40,-0.09,0.02,-0.20,-63.96,-7.05,10.8762152.00,-8.65,-2.24,-4.32,-0.08,-0.02,-0.07,-63.61,-6.35,10.5362204.00,-8.31,-2.62,-4.78,-0.01,-0.01,-0.02,-63.61,-6.35,10.5362255.00,-8.80,-2.31,-4.33,-0.02,-0.01,-0.00,-63.61,-6.35,10.5362307.00,-7.95,-2.79,-5.07,0.04,-0.08,0.05,-64.84,-5.11,11.3862358.00,-9.81,-2.05,-3.16,0.01,-0.25,0.16,-64.84,-5.11,11.3862410.00,-8.53,-2.45,-4.76,-0.10,-0.04,-0.04,-66.07,-6.70,10.1962462.00,-8.77,-2.32,-4.17,0.02,0.01,0.14,-66.07,-6.70,10.1962513.00,-9.29,-2.29,-4.58,0.06,0.26,-0.02,-64.84,-6.52,10.3662565.00,-8.06,-2.46,-5.18,-0.14,0.23,-0.26,-64.84,-6.52,10.3662616.00,-7.59,-3.03,-5.18,-0.23,-0.29,-0.07,-64.84,-6.52,10.3662668.00,-8.76,-2.10,-3.87,-0.02,-0.13,0.11,-64.84,-5.82,10.3662719.00,-8.86,-2.02,-4.90,-0.03,0.12,0.44,-64.84,-5.82,10.3662771.00,-9.37,-1.94,-3.80,0.30,0.36,0.21,-65.01,-8.81,11.2162823.00,-9.02,-1.21,-5.29,-0.12,0.08,-0.30,-65.01,-8.81,11.2162874.00,-8.10,-3.06,-4.58,0.11,-0.23,-0.02,-65.01,-8.81,11.2162926.00,-8.83,-2.34,-3.74,-0.14,-0.05,0.11,-64.49,-7.58,10.0262977.00,-9.39,-1.31,-3.78,-0.06,0.16,0.12,-64.49,-7.58,10.0263029.00,-7.51,-2.73,-5.90,0.03,0.37,-0.13,-64.13,-8.29,10.0263081.00,-8.51,-2.34,-4.76,0.06,-0.03,0.09,-64.13,-8.29,10.0263132.00,-8.47,-2.15,-4.83,0.06,-0.30,0.19,-64.13,-8.29,10.0263184.00,-8.83,-1.38,-4.24,-0.01,-0.14,0.13,-64.84,-9.34,11.7263235.00,-8.79,-1.34,-4.35,-0.09,-0.08,0.15,-64.84,-9.34,11.7263287.00,-8.67,-1.71,-4.72,0.04,-0.05,-0.18,-64.66,-8.81,9.8563339.00,-8.68,-1.95,-4.43,0.16,0.05,-0.07,-64.66,-8.81,9.8563390.00,-8.91,-1.92,-3.98,0.08,0.03,0.05,-65.36,-9.17,10.8763442.00,-8.87,-1.46,-4.57,-0.18,0.06,0.27,-65.36,-9.17,10.8763493.00,-8.67,-1.91,-4.85,-0.18,-0.07,0.02,-65.36,-9.17,10.8763545.00,-8.83,-1.92,-4.16,-0.02,-0.04,0.14,-65.36,-10.23,10.5363597.00,-8.61,-0.88,-4.75,0.15,0.15,0.31,-65.36,-10.23,10.5363648.00,-8.97,-0.03,-4.43,-0.06,0.13,-0.22,-66.42,-12.34,10.5363700.00,-9.41,-2.49,-3.45,0.11,0.18,-0.87,-66.42,-12.34,10.5363751.00,-7.45,-3.17,-5.66,0.03,-0.12,-0.38,-66.42,-12.34,10.5363803.00,-8.44,-2.93,-4.34,-0.01,-0.67,0.18,-64.84,-8.29,11.0463855.00,-8.97,-0.29,-3.86,-0.35,-0.20,0.26,-64.84,-8.29,11.0463906.00,-10.80,-0.85,-2.17,0.04,0.51,-0.27,-64.84,-8.64,10.3663958.00,-5.04,-3.86,-8.27,-0.22,0.86,-0.36,-64.84,-8.64,10.3664010.00,-7.98,-1.69,-4.95,-0.00,-0.60,0.95,-64.84,-8.64,10.3664061.00,-10.37,-0.06,-3.08,0.16,-0.42,0.57,-64.49,-9.34,12.7464113.00,-8.15,-1.90,-5.34,-0.13,0.05,0.05,-64.49,-9.34,12.7464164.00,-7.70,-2.10,-5.31,-0.01,-0.30,0.17,-65.54,-11.46,12.0664216.00,-9.77,0.19,-3.91,-0.17,-0.32,0.59,-65.54,-11.46,12.0664268.00,-9.45,0.59,-4.11,0.12,0.45,-0.16,-66.24,-12.16,11.7264319.00,-10.57,-1.41,-2.55,0.28,0.95,-0.65,-66.24,-12.16,11.7264371.00,-7.64,-1.78,-6.17,-0.13,1.30,-1.16,-66.24,-12.16,11.7264423.00,-6.10,-2.40,-9.80,-0.70,0.14,-1.11,-63.08,-8.64,16.8264474.00,-6.26,-3.20,-4.75,0.05,-1.29,-1.53,-63.08,-8.64,16.8264526.00,-7.91,-2.31,-4.44,0.82,-0.52,-0.54,-63.08,-8.64,16.8264578.00,-7.87,-1.90,-4.22,1.01,-0.66,-0.53,-62.73,-0.53,11.3864629.00,-8.04,-5.22,-4.15,0.59,-0.63,-1.21,-62.73,-0.53,11.3864681.00,-8.57,-5.54,-3.56,1.30,0.12,-0.40,-61.50,3.17,7.1364733.00,-7.98,-8.37,-2.26,-0.11,-0.27,-0.30,-61.50,3.17,7.1364784.00,-6.57,-5.47,-2.81,-2.02,0.33,0.45,-62.20,5.64,5.4464836.00,-10.34,-1.98,-4.77,-0.77,-0.32,0.54,-62.20,5.64,5.4464888.00,-7.92,-3.49,-4.97,-0.18,-0.17,0.13,-60.80,3.17,10.5364939.00,-8.38,-3.88,-3.54,0.02,-0.28,-0.00,-60.80,3.17,10.5364991.00,-8.34,-3.30,-4.56,-0.19,-0.30,0.21,-60.80,3.17,10.5365043.00,-8.21,-3.47,-4.10,-0.03,-0.12,-0.03,-62.73,2.64,7.3065094.00,-8.38,-3.82,-3.85,0.11,-0.06,-0.14,-62.73,2.64,7.3065146.00,-8.83,-3.18,-3.39,0.11,0.15,0.12,-62.73,2.64,7.3065198.00,-8.21,-3.20,-4.45,-0.49,0.07,0.19,-61.85,2.82,7.8165249.00,-8.31,-3.52,-4.22,-0.05,-0.15,-0.14,-61.85,2.82,7.8165301.00,-8.54,-3.61,-3.65,0.06,-0.01,-0.03,-62.55,2.82,8.8365353.00,-8.32,-3.39,-3.97,-0.16,0.23,0.11,-62.55,2.82,8.8365404.00,-7.93,-3.16,-5.35,-0.16,0.20,-0.09,-62.38,1.59,8.6665456.00,-7.79,-3.96,-4.48,0.18,-0.31,-0.05,-62.38,1.59,8.6665508.00,-8.70,-3.67,-3.33,0.14,-0.09,0.08,-62.38,1.59,8.6665559.00,-8.35,-2.84,-4.54,-0.05,0.08,0.25,-62.90,1.76,7.8165611.00,-8.56,-2.65,-4.44,-0.15,-0.08,-0.09,-62.90,1.76,7.8165663.00,-8.77,-3.56,-3.73,0.04,0.05,-0.16,-62.73,2.29,7.9865715.00,-7.54,-3.34,-5.23,-0.10,0.07,0.09,-62.73,2.29,7.9865766.00,-9.91,-2.98,-3.59,0.16,-0.30,0.27,-62.73,2.29,7.9865818.00,-8.50,-2.63,-4.38,-0.20,0.02,0.05,-63.08,1.23,7.3065870.00,-8.34,-2.87,-4.71,0.07,-0.02,-0.10,-63.08,1.23,7.3065921.00,-8.50,-3.42,-3.45,0.23,-0.00,-0.03,-62.73,2.29,9.0065973.00,-8.65,-3.12,-3.50,0.02,0.09,0.14,-62.73,2.29,9.0066025.00,-8.83,-2.40,-4.23,-0.24,0.14,0.03,-62.73,2.29,9.0066077.00,-7.81,-3.74,-5.21,-0.12,-0.08,0.04,-63.43,0.53,10.0266129.00,-8.36,-2.97,-4.57,0.01,-0.24,0.07,-63.43,0.53,10.0266180.00,-8.80,-3.28,-3.85,0.25,0.10,0.04,-64.31,0.00,8.1566232.00,-9.61,-2.80,-4.87,0.22,-0.05,0.08,-64.31,0.00,8.1566284.00,-10.18,-1.83,-3.39,-0.13,-0.50,-0.30,-62.73,1.59,6.9666335.00,-7.00,-3.32,-1.46,0.05,-0.47,0.04,-62.73,1.59,6.9666387.00,-9.20,-3.08,-3.05,0.53,0.51,-0.02,-62.73,1.59,6.9666439.00,-7.34,-3.92,-5.91,0.07,0.38,0.11,-62.55,2.12,8.8366491.00,-8.76,-2.89,-2.95,0.17,-0.30,0.09,-62.55,2.12,8.8366542.00,-9.15,-2.97,-3.47,-0.12,-0.21,0.07,-64.13,1.94,7.9866594.00,-10.16,-3.79,-3.67,0.01,-0.28,0.02,-64.13,1.94,7.9866646.00,-8.54,-2.85,-4.06,-0.02,-0.09,0.04,-64.13,1.94,7.9866698.00,-8.85,-3.32,-3.06,-0.06,0.11,0.22,-63.08,1.23,5.6166750.00,-8.49,-2.93,-4.80,-0.35,-0.03,-0.03,-63.08,1.23,5.6166801.00,-8.61,-3.11,-3.91,0.04,-0.13,-0.17,-63.61,0.35,7.1366853.00,-8.09,-3.97,-3.71,-0.11,0.34,-0.18,-63.61,0.35,7.1366905.00,-7.73,-3.61,-5.10,-0.03,-0.02,0.07,-63.61,0.35,7.1366957.00,-8.60,-3.29,-3.80,-0.02,-0.12,0.14,-63.43,1.23,6.9667008.00,-8.64,-3.06,-3.70,0.06,0.10,0.17,-63.43,1.23,6.9667060.00,-8.56,-3.65,-3.72,-0.10,-0.05,-0.03,-64.31,0.35,7.4767112.00,-8.56,-3.14,-4.38,-0.09,-0.02,-0.02,-64.31,0.35,7.4767164.00,-8.34,-3.10,-3.79,0.11,0.09,0.16,-62.38,-0.53,7.3067216.00,-9.30,-2.63,-3.61,-0.16,0.21,-0.09,-62.38,-0.53,7.3067267.00,-7.67,-3.76,-4.59,-0.21,-0.04,-0.11,-62.38,-0.53,7.3067319.00,-10.31,-2.32,-3.16,0.09,-0.36,0.27,-63.08,0.88,9.3467371.00,-8.88,-2.89,-3.44,-0.13,0.03,0.16,-63.08,0.88,9.3467423.00,-8.37,-2.70,-4.72,-0.12,-0.05,-0.06,-64.31,-1.06,7.8167475.00,-8.48,-2.73,-4.24,0.04,-0.04,-0.15,-64.31,-1.06,7.8167527.00,-8.65,-3.46,-2.97,0.18,0.04,-0.01,-64.31,-1.06,7.8167579.00,-8.61,-3.64,-4.08,-0.00,0.04,0.19,-64.66,-0.35,7.1367630.00,-8.72,-2.15,-5.29,-0.21,0.15,-0.63,-64.66,-0.35,7.1367682.00,-8.10,-3.71,-3.83,0.05,-0.79,-0.38,-64.13,-1.23,7.9867734.00,-6.75,-3.45,-1.84,0.05,0.32,0.19,-64.13,-1.23,7.9867786.00,-6.98,-4.79,-7.47,0.14,0.88,0.16,-64.13,-1.23,7.9867838.00,-7.73,-3.03,-1.99,0.20,-0.08,-0.12,-62.90,-0.35,9.1767890.00,-10.00,-2.32,-3.46,-0.26,-0.22,0.27,-62.90,-0.35,9.1767941.00,-8.38,-3.07,-4.63,-0.17,-0.00,0.00,-62.73,-0.18,7.6467993.00,-8.48,-2.38,-4.53,-0.05,0.02,-0.07,-62.73,-0.18,7.6468045.00,-8.86,-3.17,-2.66,0.10,0.03,0.02,-63.96,-0.35,6.7968097.00,-8.62,-2.63,-4.55,-0.42,0.08,0.13,-63.96,-0.35,6.7968149.00,-8.58,-2.95,-4.12,-0.17,-0.14,-0.10,-63.96,-0.35,6.7968201.00,-8.61,-2.21,-4.39,0.10,0.03,0.03,-63.78,-0.53,7.6468253.00,-8.69,-1.58,-5.14,-0.06,0.32,0.52,-63.78,-0.53,7.6468305.00,-9.05,-1.92,-3.47,0.68,0.14,-0.07,-64.49,-3.00,9.6868356.00,-9.31,-4.58,-2.66,0.72,-0.18,-0.86,-64.49,-3.00,9.6868408.00,-8.17,-3.79,-3.98,-0.43,0.15,0.08,-64.49,-3.00,9.6868460.00,-7.50,-3.29,-5.14,-0.23,-0.14,0.27,-62.73,-0.53,8.6668512.00,-9.03,-2.51,-3.19,-0.11,-0.10,0.03,-62.73,-0.53,8.6668564.00,-8.66,-2.71,-4.07,-0.15,-0.10,-0.12,-63.26,-0.71,7.8168616.00,-8.72,-2.54,-3.50,-0.03,0.22,0.24,-63.26,-0.71,7.8168668.00,-8.29,-2.46,-4.82,-0.20,0.26,-0.13,-62.90,-2.82,8.8368720.00,-7.90,-2.19,-5.12,-0.30,-0.15,0.11,-62.90,-2.82,8.8368772.00,-8.80,-2.04,-3.75,-0.02,-0.11,0.04,-62.90,-2.82,8.8368824.00,-8.90,-2.41,-4.31,0.14,0.08,-0.06,-63.26,-2.12,8.4968876.00,-9.02,-1.72,-3.68,-0.14,0.16,0.26,-63.26,-2.12,8.4968927.00,-8.55,-2.44,-4.88,-0.18,0.01,0.02,-64.13,-4.05,9.3468979.00,-8.75,-2.59,-3.78,0.07,-0.13,-0.14,-64.13,-4.05,9.3469031.00,-8.70,-2.71,-3.84,0.08,0.02,-0.00,-64.13,-4.05,9.3469083.00,-8.88,-1.81,-4.42,-0.13,0.19,0.14,-63.08,-1.94,8.3269135.00,-7.58,-3.33,-5.05,-0.06,0.05,-0.10,-63.08,-1.94,8.3269187.00,-8.24,-2.69,-5.06,0.02,-0.24,0.09,-65.89,-2.64,9.3469239.00,-8.79,-2.42,-4.17,0.07,-0.05,0.04,-65.89,-2.64,9.3469291.00,-8.61,-3.17,-3.57,0.06,0.08,0.08,-65.89,-2.64,9.3469343.00,-8.91,-2.31,-3.97,-0.05,-0.14,-0.08,-64.66,-4.23,8.8369395.00,-8.74,-2.14,-4.45,-0.02,0.07,0.12,-64.66,-4.23,8.8369447.00,-9.12,-2.41,-4.40,-0.02,0.22,0.06,-64.66,-3.53,7.4769499.00,-7.91,-3.06,-4.62,-0.10,-0.04,-0.06,-64.66,-3.53,7.4769551.00,-8.32,-2.48,-5.28,-0.15,-0.29,0.13,-63.96,-4.23,8.8369603.00,-8.94,-1.86,-4.14,0.08,-0.06,-0.00,-63.96,-4.23,8.8369655.00,-8.81,-2.90,-3.47,0.23,0.07,-0.00,-63.43,-3.00,7.6469707.00,-9.00,-1.67,-4.56,-0.26,0.04,0.32,-63.43,-3.00,7.6469759.00,-8.93,-1.59,-5.10,-0.54,-0.17,-0.18,-63.43,-3.00,7.6469811.00,-8.88,-1.87,-3.84,0.21,-0.30,-0.62,-65.01,-4.23,8.1569863.00,-9.83,-2.06,-4.49,-0.07,0.64,-0.33,-65.01,-4.23,8.1569915.00,-8.22,-4.70,-7.33,0.09,-0.05,-0.51,-63.08,-0.88,8.6669967.00,-5.90,-3.60,-6.68,-0.81,-0.26,-0.96,-63.08,-0.88,8.6670019.00,-6.67,-3.55,-4.79,1.14,-0.06,-0.03,-63.08,-0.88,8.6670071.00,-8.04,-1.37,-3.91,0.48,0.01,-0.38,-62.73,2.29,6.6270123.00,-10.30,-2.75,-0.60,0.98,-0.06,-0.09,-62.73,2.29,6.6270175.00,-8.28,-3.89,-2.35,0.06,0.37,-1.50,-61.15,3.88,6.7970227.00,-7.81,-5.15,-2.67,-0.02,-0.05,-0.32,-61.15,3.88,6.7970279.00,-8.49,-5.23,-4.20,-0.91,0.09,-0.21,-61.15,3.88,6.7970331.00,-8.27,-3.00,-5.41,-0.60,-0.42,0.14,-60.09,8.11,8.8370383.00,-7.78,-5.61,-3.17,-0.22,-0.23,0.03,-60.09,8.11,8.8370435.00,-9.10,-3.89,-4.17,-0.07,-0.09,-0.12,-60.62,5.11,6.9670487.00,-7.32,-4.47,-4.08,0.02,-0.13,-0.20,-60.62,5.11,6.9670539.00,-8.25,-4.59,-2.96,-0.12,-0.14,0.02,-58.86,6.88,5.6170591.00,-8.01,-4.01,-4.72,-0.30,0.01,0.01,-58.86,6.88,5.6170643.00,-7.99,-3.67,-4.24,-0.06,-0.04,-0.13,-58.86,6.88,5.6170695.00,-8.38,-4.80,-3.37,0.50,0.03,-0.18,-59.39,6.70,7.1370747.00,-8.26,-5.18,-3.13,0.12,0.30,0.24,-59.39,6.70,7.1370799.00,-8.01,-4.09,-3.81,-0.15,0.30,0.41,-59.74,5.99,5.4470851.00,-8.12,-4.15,-4.11,-0.05,0.22,0.17,-59.74,5.99,5.4470903.00,-8.14,-3.47,-4.75,-0.10,0.07,-0.13,-59.74,5.99,5.4470955.00,-7.60,-4.56,-4.21,0.14,-0.27,-0.26,-60.97,5.11,7.6471007.00,-8.51,-4.45,-2.69,0.17,-0.09,0.04,-60.97,5.11,7.6471059.00,-7.95,-3.87,-4.47,-0.22,0.18,0.07,-60.27,5.82,8.6671111.00,-7.31,-5.13,-4.67,-0.18,0.29,0.02,-60.27,5.82,8.6671163.00,-8.38,-3.29,-4.64,0.23,-0.13,0.12,-60.27,5.82,8.6671215.00,-8.46,-4.24,-2.60,0.31,-0.05,0.03,-59.92,5.82,7.9871267.00,-8.22,-3.77,-4.21,-0.34,0.12,0.13,-59.92,5.82,7.9871319.00,-7.92,-3.66,-4.30,0.23,-0.20,-0.20,-61.15,4.23,7.8171371.00,-8.68,-4.90,-1.70,0.29,-0.05,-0.12,-61.15,4.23,7.8171423.00,-6.79,-4.27,-6.10,-0.47,0.31,0.12,-61.15,4.94,9.1771475.00,-8.09,-4.10,-4.02,0.26,-0.27,0.06,-61.15,4.94,9.1771527.00,-8.57,-3.93,-3.11,-0.06,-0.04,-0.05,-61.15,4.94,9.1771579.00,-8.06,-4.24,-4.10,0.03,0.02,0.04,-62.03,2.64,7.9871631.00,-8.18,-3.92,-3.38,-0.06,0.20,0.13,-62.03,2.64,7.9871683.00,-7.80,-3.68,-4.77,-0.20,0.04,-0.17,-61.15,4.23,9.5171735.00,-9.30,-3.73,-5.01,-0.16,-0.23,0.16,-61.15,4.23,9.5171787.00,-8.29,-3.54,-3.73,-0.04,-0.13,0.03,-61.15,4.23,9.5171839.00,-7.77,-4.84,-4.35,0.26,0.11,-0.03,-61.15,4.23,9.8571891.00,-8.46,-3.55,-3.17,0.17,0.01,0.12,-61.15,4.23,9.8571943.00,-8.36,-2.94,-4.58,-0.47,0.17,0.08,-62.38,4.05,9.0071996.00,-9.19,-3.30,-4.05,0.09,-0.27,0.11,-62.38,4.05,9.0072048.00,-8.59,-3.75,-2.65,0.03,-0.07,0.08,-62.38,4.05,9.0072100.00,-8.15,-2.85,-4.93,-0.38,0.06,0.07,-62.38,3.00,9.3472152.00,-7.98,-3.61,-4.69,0.05,-0.03,-0.11,-62.38,3.00,9.3472204.00,-8.14,-3.90,-4.39,0.20,0.00,-0.13,-62.20,2.82,7.4772256.00,-8.54,-3.50,-3.28,0.21,0.04,0.12,-62.20,2.82,7.4772308.00,-8.55,-3.30,-4.35,-0.14,0.15,0.20,-62.03,1.94,8.6672360.00,-8.55,-4.14,-2.98,-0.26,-0.07,-0.22,-62.03,1.94,8.6672412.00,-7.65,-3.39,-4.95,-0.32,0.16,0.01,-62.03,1.94,8.6672464.00,-7.90,-3.90,-4.51,0.04,-0.06,0.08,-61.50,2.82,10.1972516.00,-8.29,-2.99,-4.80,-0.00,-0.08,0.13,-61.50,2.82,10.1972568.00,-8.11,-3.41,-4.75,0.02,-0.16,0.11,-62.03,3.35,9.3472621.00,-8.30,-3.16,-4.47,-0.10,0.01,0.07,-62.03,3.35,9.3472673.00,-8.43,-3.16,-4.05,0.03,0.03,0.06,-62.03,3.35,9.3472725.00,-8.20,-3.13,-4.98,-0.06,-0.03,-0.04,-62.73,1.23,11.3872777.00,-8.63,-2.79,-4.78,0.01,0.05,0.03,-62.73,1.23,11.3872829.00,-10.23,-2.09,-3.49,-0.00,-0.25,-0.14,-62.20,0.71,11.5572881.00,-7.22,-3.58,-4.44,0.22,-0.87,-0.27,-62.20,0.71,11.5572933.00,-8.07,-4.18,-1.30,0.15,-0.67,-0.08,-61.32,3.70,8.3272986.00,-7.91,-2.84,-6.08,0.09,0.38,0.25,-61.32,3.70,8.3273038.00,-8.15,-3.11,-4.07,0.13,-0.21,-0.04,-61.32,3.70,8.3273090.00,-8.51,-3.56,-3.75,0.14,-0.11,-0.14,-64.66,2.47,8.8373142.00,-8.06,-4.17,-3.76,-0.30,0.29,0.45,-64.66,2.47,8.8373194.00,-8.70,-3.03,-3.59,-0.15,0.24,0.13,-63.43,0.88,7.9873246.00,-8.01,-3.14,-4.83,0.23,-0.14,-0.39,-63.43,0.88,7.9873298.00,-8.83,-4.63,-2.57,0.27,-0.26,-0.33,-60.62,2.64,7.6473351.00,-8.65,-4.16,-3.39,-0.39,-0.02,0.42,-60.62,2.64,7.6473403.00,-8.00,-2.81,-5.59,-0.30,0.30,0.76,-60.62,2.64,7.6473455.00,-9.06,-2.69,-4.34,0.17,0.15,0.27,-64.13,0.88,9.0073507.00,-8.87,-2.21,-4.30,0.58,-0.05,-0.80,-64.13,0.88,9.0073559.00,-9.04,-4.46,-2.64,-0.23,0.25,0.08,-62.55,2.82,7.8173611.00,-6.98,-3.42,-5.20,-0.74,0.30,0.33,-62.55,2.82,7.8173665.00,-7.70,-2.76,-5.63,0.01,-0.25,0.40,-62.55,2.82,7.8173719.00,-8.97,-2.83,-2.87,0.03,-0.08,0.10,-63.43,0.18,9.6873771.00,-8.36,-2.03,-5.05,-0.19,-0.00,0.05,-63.43,0.18,9.6873821.00,-8.46,-2.43,-4.79,0.11,-0.00,-0.18,-63.08,-0.53,10.3673872.00,-8.66,-3.21,-4.00,0.21,0.02,-0.03,-63.08,-0.53,10.3673922.00,-8.76,-3.21,-3.43,-0.08,0.10,0.29,-63.26,0.00,10.5373973.00,-8.55,-1.81,-5.03,-0.41,0.11,0.17,-63.26,0.00,10.5374024.00,-7.36,-3.57,-5.02,-0.13,-0.15,-0.12,-63.26,0.00,10.5374074.00,-8.71,-2.43,-4.53,-0.19,-0.13,0.01,-63.43,-0.88,9.3474125.00,-8.46,-4.03,-3.34,0.22,0.07,0.13,-63.43,-0.88,9.3474176.00,-8.00,-3.02,-5.06,0.07,0.15,0.23,-63.43,-0.88,9.3474226.00,-9.27,-1.86,-4.75,0.28,0.21,-0.17,-64.49,-3.00,10.7074277.00,-8.77,-3.58,-3.95,0.25,-0.18,-0.88,-64.49,-3.00,10.7074328.00,-7.67,-2.74,-2.24,0.02,-0.71,-0.47,-64.13,1.59,9.3474378.00,-5.44,-4.21,-1.38,0.24,0.10,0.13,-64.13,1.59,9.3474429.00,-10.36,-3.84,-8.00,0.11,0.65,0.58,-64.13,1.59,9.3474479.00,-5.95,-4.44,-3.04,0.24,0.04,-0.12,-62.20,0.71,8.8374530.00,-10.61,-1.92,-4.49,-0.14,-0.22,0.27,-62.20,0.71,8.8374581.00,-9.67,-2.83,-4.30,-0.01,-0.13,0.02,-63.96,0.35,8.8374631.00,-8.59,-3.31,-3.30,0.03,-0.07,-0.01,-63.96,0.35,8.8374682.00,-8.53,-2.95,-4.30,-0.02,-0.03,-0.01,-64.66,0.00,7.8174733.00,-8.51,-3.05,-4.08,0.03,0.02,-0.05,-64.66,0.00,7.8174783.00,-9.75,-2.52,-2.95,-0.39,0.59,-0.27,-64.66,0.00,7.8174834.00,-8.67,-3.23,-3.92,-0.74,1.09,-0.57,-62.38,1.94,9.6874885.00,-5.86,-3.51,-8.24,-0.64,0.78,-0.48,-62.38,1.94,9.6874936.00,-6.42,-3.62,-6.45,-0.47,0.06,-0.13,-62.38,1.94,9.6874986.00,-7.91,-3.34,-5.29,-0.95,-0.32,0.27,-62.38,3.35,14.1075037.00,-7.72,-2.93,-5.83,-1.26,-0.30,0.54,-62.38,3.35,14.1075088.00,-8.25,-2.19,-4.38,-1.37,-0.11,0.89,-62.73,-1.59,16.4875139.00,-8.04,-2.42,-3.74,-2.48,0.00,1.10,-62.73,-1.59,16.4875189.00,-6.78,-0.57,-6.57,-4.11,0.12,2.01,-65.36,-11.64,18.3475240.00,-7.74,4.39,-2.74,-4.38,-1.50,2.97,-65.36,-11.64,18.3475291.00,-10.29,8.39,-0.50,-4.38,-2.36,2.85,-65.36,-11.64,18.3475342.00,-4.90,8.44,2.61,-3.18,-1.03,1.44,-62.73,-34.38,1.5375392.00,-4.62,8.01,0.42,-0.39,-0.14,0.62,-62.73,-34.38,1.5375443.00,-6.39,7.99,1.86,-0.82,-1.07,-0.02,-60.27,-37.55,-5.9475494.00,-6.70,6.42,1.96,0.05,-0.36,-0.02,-60.27,-37.55,-5.9475545.00,-7.63,7.04,0.05,0.41,-0.04,-0.02,-60.27,-37.55,-5.9475596.00,-7.02,6.44,0.83,0.28,0.06,0.03,-59.21,-38.26,-7.3075647.00,-7.24,7.62,-0.49,0.36,0.15,0.11,-59.21,-38.26,-7.3075698.00,-6.80,6.70,0.02,-0.06,0.16,0.19,-59.92,-38.61,-4.5975748.00,-6.83,7.73,-0.45,-0.17,0.06,0.32,-59.92,-38.61,-4.5975799.00,-6.81,7.15,0.28,-0.34,-0.10,0.21,-58.86,-40.72,-5.9475850.00,-6.73,7.43,0.03,-0.56,-0.21,0.33,-58.86,-40.72,-5.9475901.00,-6.66,8.11,1.54,-0.86,-0.43,0.22,-58.86,-40.72,-5.9475952.00,-6.14,7.32,2.04,-0.90,-0.32,0.01,-58.51,-40.37,-8.3276002.00,-5.69,7.39,1.98,-1.93,-0.58,0.37,-58.51,-40.37,-8.3276053.00,-5.67,7.72,3.30,-2.33,-0.79,0.03,-58.51,-40.37,-8.3276104.00,-5.68,6.33,4.26,-2.37,-0.89,-0.59,-56.05,-35.08,-15.1276155.00,-6.24,5.78,5.50,-1.88,-1.01,-0.42,-56.05,-35.08,-15.1276206.00,-6.04,4.94,6.99,-1.87,-0.62,-0.64,-52.19,-24.51,-25.6576256.00,-5.39,4.05,7.37,-1.58,-0.25,-0.62,-52.19,-24.51,-25.6576307.00,-5.28,4.45,6.77,-0.96,-0.09,0.07,-52.19,-24.51,-25.6576358.00,-4.95,4.56,5.76,-1.14,0.10,-0.31,-51.31,-17.28,-27.5276409.00,-5.34,3.17,6.94,-1.65,-0.50,-0.58,-51.31,-17.28,-27.5276460.00,-5.08,2.70,8.08,-0.59,-1.24,0.02,-49.73,-8.64,-30.0676511.00,-5.10,1.89,8.87,-0.79,-1.12,-0.46,-49.73,-8.64,-30.0676562.00,-4.49,1.09,8.50,-0.88,-0.57,-0.40,-43.58,-4.94,-31.9376613.00,-3.89,0.86,9.02,-0.32,-0.38,-0.22,-43.58,-4.94,-31.9376664.00,-4.47,1.94,9.84,-0.43,-0.34,-0.17,-43.58,-4.94,-31.9376715.00,-4.47,0.87,9.19,-0.13,-0.17,-0.33,-42.17,-1.06,-33.2976766.00,-3.97,0.34,8.28,0.08,-0.02,-0.09,-42.17,-1.06,-33.2976816.00,-3.38,1.19,8.93,0.05,-0.11,0.09,-42.17,-1.06,-33.2976867.00,-3.89,1.59,9.42,0.04,-0.12,-0.15,-40.94,-1.23,-33.1276918.00,-3.85,0.88,9.05,0.01,-0.09,-0.31,-40.94,-1.23,-33.1276969.00,-3.88,0.68,8.52,0.03,-0.07,-0.18,-40.41,-0.71,-32.9577020.00,-3.88,0.74,9.20,1.37,-0.19,0.11,-40.41,-0.71,-32.9577071.00,-5.21,3.71,11.06,2.54,0.35,0.26,-41.47,-5.64,-32.9577122.00,-3.29,5.22,9.00,2.88,1.70,-1.64,-41.47,-5.64,-32.9577173.00,-6.70,3.62,8.44,2.98,1.69,-1.20,-41.47,-5.64,-32.9577224.00,-5.61,8.87,3.93,3.48,0.41,-2.44,-49.90,-18.33,-27.5277275.00,-4.79,5.93,6.14,3.13,-1.23,-3.78,-49.90,-18.33,-27.5277326.00,-5.52,6.17,7.21,0.68,-0.69,-3.13,-49.73,-20.27,-27.3577377.00,-4.25,1.76,9.20,2.84,1.18,-0.79,-49.73,-20.27,-27.3577428.00,-4.76,6.47,1.70,4.35,2.80,1.64,-49.73,-20.27,-27.3577479.00,-6.83,7.22,-0.51,2.24,1.74,-0.27,-56.40,-32.61,-15.8077530.00,-7.53,0.06,2.58,1.05,0.26,-1.03,-56.40,-32.61,-15.8077580.00,-9.19,2.03,-2.29,0.17,0.76,-0.35,-59.04,-32.44,-8.1577631.00,-13.44,-0.88,-1.88,0.44,-0.27,0.47,-59.04,-32.44,-8.1577682.00,-8.52,17.95,-7.06,-1.44,2.31,3.12,-57.63,-39.84,-1.7077733.00,-7.24,7.02,-0.69,0.61,0.63,-1.48,-57.63,-39.84,-1.7077784.00,-7.24,3.34,-5.95,0.21,0.95,-0.81,-57.63,-39.84,-1.7077835.00,-7.65,7.27,-3.07,1.17,-0.44,-0.20,-60.09,-35.26,2.7277886.00,-10.62,0.26,1.24,2.15,-0.49,-1.32,-60.09,-35.26,2.7277937.00,-6.69,2.15,2.46,2.94,2.34,-0.88,-60.09,-35.26,2.7277988.00,-4.76,4.76,-3.79,0.28,3.98,0.15,-61.50,-32.09,11.2178039.00,-6.20,4.44,-6.91,-0.62,3.26,-0.60,-61.50,-32.09,11.2178090.00,-3.44,0.53,-11.28,0.25,3.61,-0.53,-56.23,-28.91,29.2178141.00,-4.95,5.74,-9.46,0.19,2.86,1.30,-56.23,-28.91,29.2178192.00,-2.78,2.57,-13.14,-0.79,2.30,0.55,-44.45,-29.09,40.2678242.00,-1.61,5.03,-8.23,0.58,0.79,1.09,-44.45,-29.09,40.2678293.00,-2.12,6.93,-9.60,-0.37,0.97,0.19,-44.45,-29.09,40.2678344.00,-1.02,1.95,-9.46,1.74,0.41,-1.12,-39.36,-28.21,42.4678395.00,-1.09,2.60,-8.88,2.18,0.66,0.02,-39.36,-28.21,42.4678446.00,-1.72,3.18,-10.62,1.49,0.65,-1.57,-37.60,-17.98,48.5878497.00,0.72,-0.93,-9.22,1.78,0.21,-2.69,-37.60,-17.98,48.5878548.00,-0.74,0.37,-11.28,0.42,1.10,-0.42,-37.60,-17.98,48.5878599.00,-0.58,1.33,-10.92,0.66,0.44,-1.21,-33.91,-8.64,48.0778650.00,0.61,-4.18,-13.42,2.07,-0.04,-1.78,-33.91,-8.64,48.0778701.00,0.35,-2.17,-9.35,-0.37,-0.35,-0.76,-31.80,-1.23,48.0778752.00,-0.67,0.01,-9.43,-0.57,-0.40,0.41,-31.80,-1.23,47.0578803.00,-0.97,1.07,-11.55,-1.46,0.47,1.50,-31.80,-1.23,47.0578854.00,1.16,1.19,-12.65,-0.73,0.90,0.51,-32.51,-7.58,47.3978905.00,0.05,0.49,-10.23,-0.14,-0.07,-0.06,-32.51,-7.58,47.3978956.00,0.25,0.11,-10.20,0.01,0.00,-0.05,-31.45,-8.99,47.7379007.00,0.14,0.25,-10.20,-0.01,-0.01,-0.01,-31.45,-8.99,47.7379058.00,0.18,0.24,-10.19,-0.00,-0.01,-0.01,-31.45,-8.99,47.7379109.00,0.16,0.22,-10.18,-0.00,-0.01,-0.01,-31.80,-8.64,47.0579160.00,0.17,0.23,-10.18,0.00,-0.01,-0.01,-31.80,-8.64,47.0579211.00,0.17,0.24,-10.21,-0.00,-0.01,-0.01,-30.92,-8.81,48.9279262.00,0.18,0.23,-10.17,-0.00,-0.01,-0.01,-30.92,-8.81,48.9279313.00,0.16,0.24,-10.20,-0.00,-0.01,-0.01,-30.92,-8.81,48.9279365.00,0.17,0.25,-10.20,0.00,-0.01,-0.01,-31.10,-7.23,49.4379416.00,0.15,0.22,-10.19,-0.00,-0.01,-0.01,-31.10,-7.23,49.4379467.00,0.18,0.21,-10.20,0.00,-0.01,-0.01,-31.63,-8.11,47.2279518.00,0.17,0.23,-10.19,-0.00,-0.01,-0.01,-31.63,-8.11,47.2279569.00,0.17,0.24,-10.21,-0.00,-0.01,-0.01,-31.80,-7.58,48.4179620.00,0.18,0.25,-10.20,0.00,-0.01,-0.01,-31.80,-7.58,48.4179671.00,0.18,0.23,-10.20,-0.00,-0.01,-0.01,-31.80,-7.58,48.4179722.00,0.17,0.23,-10.21,-0.00,-0.01,-0.01,-32.86,-9.70,49.0979773.00,0.18,0.25,-10.16,-0.00,-0.01,-0.01,-32.86,-9.70,49.0979824.00,1.05,-2.61,-9.35,-0.09,-0.05,-0.03,-33.03,-8.81,48.2479875.00,-23.78,-8.57,30.45,-0.06,-4.36,0.95,-33.03,-8.81,48.2479926.00,1.99,10.16,-14.96,-4.38,-1.41,4.39,-33.03,-8.81,48.2479978.00,1.46,14.13,-1.01,-1.48,-0.42,4.39,-36.72,-50.95,28.0380029.00,2.59,9.06,-4.73,-4.38,-2.12,-1.96,-36.72,-50.95,28.0380080.00,2.75,8.26,-4.08,0.46,-3.13,-0.44,-35.14,-57.82,6.7980131.00,1.94,9.93,6.51,-4.38,-1.67,-0.82,-35.14,-57.82,6.7980182.00,-0.42,9.21,4.83,-4.38,-1.55,-0.28,-35.14,-57.82,6.7980233.00,0.83,6.78,7.17,-4.38,-1.26,-0.81,-29.87,-43.72,-24.1280284.00,0.86,1.91,13.34,-4.38,-2.15,-1.09,-29.87,-43.72,-24.1280335.00,1.81,2.33,9.30,-3.63,-0.99,0.65,-19.68,-6.35,-39.4180386.00,2.69,2.77,9.12,1.68,-0.00,-0.79,-19.68,-6.35,-39.4180437.00,1.81,5.17,7.97,4.35,2.15,1.40,-19.68,-6.35,-39.4180488.00,3.50,11.62,3.43,4.35,-1.77,-1.54,-23.55,-30.32,-34.6580539.00,0.82,9.59,6.36,4.35,-0.80,1.27,-23.55,-30.32,-34.6580591.00,0.27,10.07,-11.71,4.35,1.43,-2.99,-24.95,-57.82,15.9780642.00,1.74,1.04,-4.78,4.35,0.29,-1.79,-24.95,-57.82,15.9780693.00,-0.01,6.11,-9.91,-0.17,-0.54,0.12,-24.95,-57.82,15.9780744.00,-0.33,-1.35,1.17,4.35,1.01,-0.13,-29.87,-41.25,41.4480795.00,1.31,-3.09,-8.71,3.17,2.09,1.12,-29.87,-41.25,41.4480846.00,2.45,1.20,-10.57,-0.76,0.40,1.71,-23.19,-22.21,49.2680897.00,1.56,3.05,-7.62,-0.26,0.29,1.63,-23.19,-22.21,49.2680949.00,1.63,1.22,-10.29,-0.84,-0.66,0.24,-20.38,-26.09,48.5881000.00,2.61,2.62,-10.98,2.21,-1.47,-1.29,-20.38,-26.09,48.5881051.00,0.44,-1.64,-8.98,-0.13,-0.24,-0.23,-20.38,-26.09,48.5881102.00,-0.26,7.46,-15.13,-2.56,0.22,0.89,-27.76,-22.92,49.9481153.00,0.34,-2.43,-9.23,0.89,-1.54,-0.94,-27.76,-22.92,49.9481205.00,0.54,-1.57,-8.72,0.33,-0.38,0.37,-31.45,-17.45,50.1181256.00,-0.34,-0.38,-9.86,-0.68,0.48,0.65,-31.45,-17.45,50.1181307.00,0.87,-0.06,-11.84,-0.08,0.83,0.39,-31.45,-17.45,50.1181358.00,-0.03,1.02,-11.24,-0.74,0.00,0.53,-28.64,-20.63,49.0981409.00,0.07,0.75,-10.23,0.06,-0.02,-0.24,-28.64,-20.63,49.0981460.00,0.28,0.48,-10.32,-0.03,-0.02,-0.81,-27.94,-22.04,48.4181512.00,0.25,-0.43,-9.88,0.07,-0.02,-0.11,-27.94,-22.04,48.4181563.00,0.45,-0.30,-10.21,-0.26,-0.03,0.06,-27.94,-22.04,48.4181614.00,0.01,1.35,-10.45,0.03,-0.03,0.63,-28.29,-22.04,49.0981665.00,0.23,-0.03,-10.05,0.01,-0.03,-0.01,-28.29,-22.04,49.0981716.00,-0.92,3.26,-10.75,-0.66,-0.05,-0.76,-30.05,-22.74,49.4381768.00,0.29,0.11,-10.17,0.07,-0.03,-0.39,-30.05,-22.74,49.4381819.00,0.98,-1.82,-10.03,0.04,-0.00,0.15,-30.05,-22.74,49.4381870.00,-0.07,1.14,-10.18,-0.03,-0.03,0.45,-28.82,-20.45,48.5881921.00,0.20,0.17,-10.17,0.05,-0.03,-0.01,-28.82,-20.45,48.5881973.00,0.26,0.22,-10.27,-0.15,-0.02,0.03,-28.99,-22.04,49.0982024.00,-0.06,0.70,-10.18,0.02,-0.01,0.26,-28.99,-22.04,49.0982075.00,0.07,0.76,-10.43,-0.16,-0.01,0.02,-28.99,-22.04,49.0982126.00,0.00,0.83,-10.19,-0.05,-0.03,-0.18,-30.22,-22.57,48.9282178.00,0.20,0.44,-10.20,0.02,0.00,-0.48,-30.22,-22.57,48.9282229.00,0.15,0.50,-10.23,-0.00,0.02,0.02,-29.87,-21.51,48.2482280.00,0.16,0.46,-10.17,-0.02,0.05,0.15,-29.87,-21.51,48.2482331.00,0.16,0.57,-10.18,-0.02,0.02,0.04,-30.05,-23.45,48.4182383.00,0.20,0.50,-10.15,0.03,0.02,-0.02,-30.05,-23.45,48.4182434.00,0.19,0.53,-10.18,-0.02,-0.04,-0.01,-30.05,-23.45,48.4182485.00,0.25,0.38,-10.15,0.10,-0.00,0.12,-29.17,-22.57,49.2682536.00,0.20,0.34,-10.19,0.10,-0.05,0.08,-29.17,-22.57,49.2682588.00,0.29,0.27,-10.19,0.01,0.06,0.17,-28.64,-21.68,48.4182639.00,0.12,0.62,-10.26,-0.03,0.04,0.07,-28.64,-21.68,48.4182690.00,0.38,0.34,-10.24,0.13,0.02,-0.38,-28.64,-21.68,48.4182741.00,0.43,0.34,-9.90,0.11,-0.17,-0.57,-28.64,-22.04,47.3982793.00,0.13,0.09,-10.36,0.03,0.01,1.03,-28.64,-22.04,47.39