time,ax,ay,az,gx,gy,gz,mx,my,mz52.00,0.25,0.15,-10.17,-0.00,0.00,-0.00,-27.24,-22.04,49.09105.00,0.21,0.15,-10.17,-0.00,0.00,0.00,-27.24,-22.04,48.41158.00,0.32,0.13,-10.17,-0.00,0.00,0.00,-27.24,-22.04,48.41211.00,0.18,0.14,-10.16,-0.00,-0.00,0.00,-27.41,-23.27,49.26264.00,0.32,0.14,-10.24,0.00,-0.00,0.00,-27.41,-23.27,49.26317.00,0.23,0.24,-10.20,-0.00,0.00,0.00,-27.41,-23.62,48.24369.00,0.25,0.12,-10.18,-0.00,-0.00,0.00,-27.41,-23.62,48.24423.00,0.22,0.18,-10.19,-0.00,-0.00,0.00,-27.41,-23.62,48.24653.00,0.22,0.17,-10.15,-0.00,0.00,0.00,-27.41,-22.92,49.26706.00,0.27,0.13,-10.19,-0.00,0.00,0.00,-27.59,-22.04,49.09759.00,0.23,0.18,-10.16,-0.00,0.00,0.00,-27.59,-22.04,49.09812.00,0.25,0.16,-10.17,-0.00,0.00,0.00,-27.59,-22.04,49.09865.00,0.22,0.15,-10.19,-0.00,-0.00,0.00,-28.29,-23.09,48.75918.00,0.25,0.13,-10.19,-0.00,-0.00,0.00,-28.29,-23.09,48.75971.00,0.23,0.15,-10.18,-0.00,-0.00,0.00,-28.82,-21.51,49.601024.00,0.25,0.13,-10.17,-0.00,0.00,0.00,-28.82,-21.51,49.601077.00,0.23,0.17,-10.18,-0.00,-0.00,0.00,-28.29,-23.45,48.751130.00,0.24,0.13,-10.19,-0.00,0.00,0.00,-28.29,-23.45,48.751183.00,0.24,0.16,-10.20,-0.00,0.00,0.00,-28.82,-22.21,48.241236.00,0.25,0.15,-10.20,0.00,0.00,0.00,-28.82,-22.21,48.241289.00,0.24,0.17,-10.16,-0.00,0.00,0.00,-28.82,-22.21,48.241342.00,0.24,0.13,-10.18,-0.00,-0.00,0.00,-27.76,-22.92,48.921395.00,0.24,0.15,-10.18,-0.00,0.00,0.00,-27.76,-22.92,48.921448.00,0.26,0.15,-10.21,0.00,-0.00,0.00,-25.83,-22.74,49.091501.00,0.24,0.16,-10.18,-0.00,0.00,-0.00,-25.83,-22.74,49.091554.00,0.25,0.13,-10.18,-0.00,-0.00,0.00,-25.83,-22.74,49.091607.00,0.25,0.16,-10.19,-0.00,0.00,0.00,-28.82,-22.57,48.581660.00,0.25,0.15,-10.18,-0.00,0.00,-0.00,-28.82,-22.57,48.581889.00,0.25,0.17,-10.15,-0.00,0.00,0.00,-28.29,-22.39,49.771942.00,0.23,0.16,-10.20,-0.00,0.00,0.00,-28.11,-22.57,49.261995.00,0.25,0.17,-10.20,-0.00,0.00,-0.00,-28.11,-22.57,49.262048.00,0.25,0.15,-10.18,-0.00,0.00,0.00,-28.11,-22.57,49.262102.00,0.24,0.14,-10.18,-0.00,0.00,0.00,-29.87,-23.62,47.562155.00,0.23,0.14,-10.18,-0.00,0.00,0.00,-29.87,-23.62,47.562208.00,0.25,0.15,-10.21,0.00,-0.00,-0.00,-28.11,-20.80,48.582261.00,0.24,0.16,-10.19,-0.00,0.00,0.00,-28.11,-20.80,48.582314.00,0.25,0.15,-10.17,-0.00,0.00,-0.00,-28.11,-20.80,48.582367.00,0.24,0.14,-10.17,-0.00,0.00,0.00,-28.99,-22.39,48.072420.00,0.25,0.16,-10.17,-0.00,0.00,0.00,-28.99,-22.39,48.072473.00,0.24,0.15,-10.20,-0.00,0.00,0.00,-28.11,-22.21,48.582526.00,0.25,0.15,-10.20,-0.00,-0.00,0.00,-28.11,-22.21,48.582579.00,0.23,0.17,-10.20,-0.00,-0.00,0.00,-29.17,-21.86,48.922633.00,0.25,0.14,-10.17,-0.00,0.00,0.00,-29.17,-21.86,48.922686.00,0.24,0.15,-10.18,-0.00,0.00,0.00,-27.59,-22.04,47.052739.00,0.27,0.14,-10.20,-0.00,0.00,-0.00,-27.59,-22.04,47.052792.00,0.24,0.15,-10.21,-0.00,0.00,-0.00,-27.59,-22.04,47.052845.00,0.27,0.16,-10.21,-0.00,-0.00,0.00,-27.94,-22.04,48.413072.00,0.24,0.15,-10.18,-0.00,0.00,0.00,-27.24,-22.04,47.733125.00,0.24,0.15,-10.16,-0.00,0.00,0.00,-27.24,-22.04,47.733178.00,0.24,0.14,-10.20,-0.00,0.00,0.00,-27.24,-22.04,47.733231.00,0.23,0.15,-10.20,-0.00,0.00,0.00,-27.24,-22.04,47.733285.00,0.24,0.13,-10.20,-0.00,0.00,0.00,-27.24,-22.04,47.733338.00,0.25,0.15,-10.22,-0.00,-0.00,0.00,-27.94,-22.04,49.093391.00,0.25,0.14,-10.20,-0.00,0.00,0.00,-27.94,-22.04,49.093444.00,0.22,0.15,-10.21,-0.00,0.00,0.00,-28.46,-20.45,47.223497.00,0.24,0.16,-10.19,-0.00,0.00,0.00,-28.46,-20.45,47.223551.00,0.24,0.15,-10.21,-0.00,0.00,0.00,-28.46,-20.45,47.223604.00,0.25,0.15,-10.20,-0.00,0.00,0.00,-27.59,-21.33,46.373657.00,0.25,0.15,-10.20,-0.00,0.00,0.00,-27.59,-21.33,46.373711.00,0.24,0.14,-10.20,-0.00,0.00,-0.00,-28.11,-21.86,48.923764.00,0.25,0.15,-10.15,-0.00,0.00,-0.00,-28.11,-21.86,48.923817.00,0.24,0.14,-10.11,0.00,0.00,0.00,-28.11,-21.86,48.923870.00,0.26,0.17,-10.12,-0.00,0.00,0.00,-27.24,-22.74,48.073924.00,0.27,0.14,-10.14,-0.00,0.00,0.00,-27.24,-22.74,48.073977.00,0.25,0.14,-10.19,-0.00,0.00,0.00,-27.94,-22.39,47.734030.00,0.25,0.16,-10.18,-0.00,0.00,-0.00,-27.94,-22.39,47.734250.00,0.25,0.13,-10.21,-0.00,-0.00,0.00,-28.11,-22.92,47.904303.00,0.24,0.16,-10.18,-0.00,0.00,0.00,-28.11,-22.92,47.904357.00,0.25,0.16,-10.19,-0.00,-0.00,0.00,-28.64,-22.04,48.414410.00,0.24,0.14,-10.18,-0.00,0.00,0.00,-28.64,-22.04,48.414463.00,0.26,0.13,-10.20,-0.00,-0.00,-0.00,-26.88,-22.04,48.414516.00,0.25,0.16,-10.19,-0.00,-0.00,0.00,-26.88,-22.04,48.414570.00,0.25,0.14,-10.21,-0.00,-0.00,-0.00,-29.17,-23.27,49.944623.00,0.25,0.14,-10.20,-0.00,0.00,0.00,-29.17,-23.27,49.944676.00,0.25,0.16,-10.18,-0.00,0.00,0.00,-29.17,-23.27,49.944729.00,0.24,0.16,-10.18,0.00,0.00,-0.00,-27.94,-23.09,47.734783.00,0.18,0.24,-10.12,-0.03,-0.01,-0.01,-27.94,-23.09,47.734836.00,0.25,-0.06,-10.06,-0.01,0.00,-0.01,-27.76,-22.21,48.244889.00,3.85,-0.40,-9.83,0.54,-0.14,1.01,-27.76,-22.21,48.244942.00,-0.46,1.47,-8.69,0.07,0.03,0.06,-27.59,-22.04,49.434996.00,2.52,-0.70,-10.13,0.00,0.05,0.44,-27.59,-22.04,49.435049.00,-1.01,1.48,-9.62,-0.21,-0.05,0.83,-27.59,-22.04,49.435102.00,0.50,-0.80,-10.48,0.20,0.01,-0.39,-27.41,-23.98,48.245156.00,-1.59,-1.66,-10.55,0.03,0.02,-0.27,-27.41,-23.98,48.245209.00,-1.37,-0.37,-9.79,-0.18,-0.04,1.00,-27.41,-21.51,47.905440.00,0.20,0.18,-10.34,-0.01,-0.00,0.19,-24.78,-23.09,48.075493.00,0.17,0.15,-10.23,-0.00,-0.00,0.02,-24.42,-22.74,49.775547.00,0.21,0.08,-10.24,0.00,0.00,-0.00,-24.42,-22.74,49.775600.00,0.22,0.14,-10.22,-0.00,-0.00,0.00,-26.01,-23.27,48.245654.00,0.21,0.08,-10.20,-0.00,0.00,0.00,-26.01,-23.27,48.245707.00,0.22,0.11,-10.20,-0.00,-0.00,0.00,-23.72,-22.39,48.415761.00,0.22,0.10,-10.18,-0.00,0.00,-0.00,-23.72,-22.39,48.415814.00,0.21,0.10,-10.17,-0.00,-0.00,0.00,-23.72,-22.39,48.415867.00,0.22,0.10,-10.21,-0.00,0.00,0.00,-26.18,-22.04,48.415921.00,0.22,0.09,-10.17,-0.00,-0.00,-0.00,-26.18,-22.04,48.415974.00,0.19,0.10,-10.19,-0.00,0.00,0.00,-25.13,-23.80,49.096028.00,0.22,0.11,-10.20,-0.00,0.00,0.00,-25.13,-23.80,49.096081.00,0.21,0.11,-10.31,-0.00,0.00,0.00,-25.13,-23.09,49.436134.00,0.22,0.08,-10.14,0.00,0.00,-0.00,-25.13,-23.09,49.436188.00,0.20,0.09,-10.17,-0.00,-0.00,0.00,-25.13,-23.09,49.436241.00,0.21,0.09,-10.17,-0.00,0.00,0.00,-24.60,-23.62,48.586295.00,0.23,0.11,-10.21,-0.00,0.00,0.00,-24.60,-23.62,48.586348.00,0.20,0.11,-10.23,-0.00,-0.00,-0.00,-24.60,-23.27,49.266402.00,0.20,0.10,-10.19,-0.00,-0.00,0.00,-24.60,-23.27,49.266639.00,0.21,0.11,-10.18,-0.00,-0.00,-0.00,-25.48,-22.74,48.756693.00,0.21,0.12,-10.19,-0.00,-0.00,-0.00,-25.48,-22.74,48.756746.00,0.22,0.10,-10.20,-0.00,-0.00,0.00,-24.78,-23.45,49.096800.00,0.22,0.09,-10.20,-0.00,0.00,0.00,-24.78,-23.45,49.096853.00,0.22,0.11,-10.19,-0.00,0.00,0.00,-25.48,-22.74,49.096907.00,0.20,0.10,-10.21,-0.00,-0.00,-0.00,-25.48,-22.74,49.096960.00,0.19,0.11,-10.19,-0.00,-0.00,0.00,-24.95,-23.27,48.587014.00,0.98,-1.09,-10.10,-0.01,0.01,1.13,-24.95,-23.27,48.587067.00,0.39,0.07,-10.26,-0.05,-0.01,2.44,-23.55,-24.33,48.587121.00,-0.75,1.68,-10.19,-0.20,0.05,2.02,-23.55,-24.33,48.587174.00,0.01,0.05,-10.07,-0.07,-0.06,1.09,-23.55,-24.33,48.587228.00,-0.02,0.31,-10.22,0.01,0.02,0.64,-21.44,-23.62,47.907281.00,0.37,-0.37,-10.10,0.04,0.02,0.44,-21.44,-23.62,47.907335.00,0.32,-0.14,-10.21,-0.02,0.09,0.50,-20.38,-22.92,47.227388.00,0.61,-0.57,-10.16,-0.08,-0.05,1.53,-20.38,-22.92,47.227442.00,-0.18,0.23,-10.16,-0.16,-0.04,2.16,-20.38,-22.92,47.227495.00,0.21,-0.05,-10.06,0.00,0.00,2.03,-18.27,-23.62,47.567549.00,0.42,0.10,-10.25,-0.03,0.01,1.65,-18.27,-23.62,47.567602.00,0.35,0.01,-10.15,-0.02,0.03,1.76,-15.46,-22.57,49.267656.00,-0.30,0.33,-10.24,-0.05,-0.00,1.19,-15.46,-22.57,49.267884.00,0.01,-0.38,-10.05,-0.16,0.05,-0.52,-13.00,-20.45,48.247938.00,0.33,-0.25,-10.20,-0.17,-0.06,-0.52,-13.00,-20.45,48.247991.00,0.73,-1.13,-9.69,0.21,0.12,-0.23,-14.41,-22.57,47.228045.00,0.03,0.06,-10.16,-0.03,-0.03,0.01,-14.41,-22.57,47.228098.00,-0.23,0.21,-10.06,0.01,0.05,-0.02,-14.58,-21.68,48.078152.00,-0.04,-1.07,-9.46,0.16,-0.12,-0.20,-14.58,-21.68,48.078206.00,0.08,-0.02,-10.24,-0.04,-0.02,0.04,-14.23,-20.98,48.418259.00,0.16,-0.03,-10.21,0.00,0.01,0.20,-14.23,-20.98,48.418313.00,0.09,0.01,-10.21,-0.00,0.00,0.00,-14.23,-20.98,48.418366.00,0.10,-0.02,-10.19,-0.00,0.00,0.00,-14.94,-22.74,47.058420.00,0.10,-0.01,-10.18,-0.00,0.00,0.00,-14.94,-22.74,47.058474.00,0.11,0.01,-10.21,-0.00,0.00,-0.00,-14.94,-22.04,46.378527.00,0.11,-0.01,-10.20,-0.00,0.00,0.00,-14.94,-22.04,46.378581.00,0.11,-0.01,-10.20,-0.00,0.00,0.00,-14.94,-22.04,46.378634.00,0.12,-0.01,-10.19,-0.00,0.00,-0.00,-14.23,-22.04,48.418688.00,0.10,-0.00,-10.18,-0.00,-0.00,0.00,-14.23,-22.04,48.418742.00,0.12,-0.00,-10.19,-0.00,-0.00,0.00,-15.64,-20.98,46.718795.00,0.11,0.00,-10.19,-0.00,0.00,-0.00,-15.64,-20.98,46.718849.00,0.10,-0.00,-10.18,-0.00,-0.00,0.00,-14.41,-21.86,47.909084.00,0.12,-0.00,-10.20,-0.00,0.00,0.00,-13.88,-23.09,47.739138.00,0.12,-0.00,-10.21,-0.00,0.00,0.00,-14.06,-21.86,48.929192.00,0.11,-0.01,-10.17,-0.00,-0.00,0.00,-14.06,-21.86,48.929245.00,0.11,0.01,-10.18,-0.00,0.00,0.00,-13.71,-22.21,48.589299.00,0.12,-0.01,-10.17,-0.00,-0.00,0.00,-13.71,-22.21,48.589353.00,0.09,-0.00,-10.21,0.00,-0.00,0.00,-15.64,-20.98,48.419407.00,0.12,-0.01,-10.20,-0.00,-0.00,-0.00,-15.64,-20.98,48.419460.00,0.10,0.01,-10.21,-0.00,0.00,-0.00,-15.29,-22.04,48.419515.00,0.13,-0.00,-10.22,-0.00,0.00,-0.00,-15.29,-22.04,48.419573.00,0.11,0.01,-10.19,-0.00,0.00,0.00,-15.29,-22.04,48.419624.00,0.80,-0.81,-10.27,0.12,0.08,0.38,-12.48,-20.98,48.419675.00,-0.29,0.52,-10.26,0.10,0.03,0.57,-12.48,-20.98,48.419726.00,0.00,-0.03,-10.20,0.02,0.03,-0.09,-14.23,-20.63,49.099777.00,-0.35,-0.29,-10.42,0.25,0.34,-0.10,-14.23,-20.63,49.099828.00,0.59,-0.85,-10.15,0.64,0.41,0.08,-12.83,-17.81,47.739879.00,0.79,-0.75,-10.02,0.31,0.19,-0.02,-12.83,-17.81,47.739931.00,0.27,-0.58,-10.19,-0.05,0.02,0.07,-12.83,-17.81,47.7310106.00,0.18,1.10,-8.90,-1.57,-0.09,0.47,-11.25,-20.80,48.5810157.00,0.45,2.08,-10.12,-1.21,0.21,0.23,-11.25,-20.80,48.5810208.00,0.29,0.65,-10.77,0.42,-0.11,-0.49,-10.89,-23.98,46.5410259.00,0.44,-0.09,-10.74,0.52,-0.28,-0.31,-10.89,-23.98,46.5410310.00,0.19,0.79,-10.17,0.42,-0.28,-0.07,-10.89,-23.98,46.5410361.00,-0.03,0.86,-11.50,0.44,-0.24,-0.15,-12.48,-23.80,46.7110412.00,0.00,0.12,-9.54,0.52,-0.69,-0.34,-12.48,-23.80,46.7110464.00,-0.06,0.61,-11.20,0.45,-0.51,-0.28,-16.69,-20.98,48.7510515.00,-0.05,0.23,-10.22,0.45,-0.88,-0.65,-16.69,-20.98,48.7510566.00,-0.76,0.80,-10.97,0.66,-0.90,-0.84,-16.69,-20.98,48.7510617.00,-0.75,-0.99,-9.15,0.87,-1.16,-1.21,-21.26,-18.86,49.4310668.00,-1.95,-1.73,-10.81,0.11,-0.72,-0.95,-21.26,-18.86,49.4310719.00,-2.26,-0.91,-10.54,0.27,-1.13,-0.99,-27.94,-16.40,48.4110770.00,-2.56,-2.36,-9.34,0.31,-1.22,-1.05,-27.94,-16.40,48.4110821.00,-3.34,-1.91,-9.24,0.08,-1.33,-0.89,-27.94,-16.40,48.4110873.00,-3.53,-3.38,-8.34,0.40,-1.32,-0.95,-36.37,-15.34,48.0710924.00,-4.24,-3.07,-6.51,0.12,-1.05,-0.83,-36.37,-15.34,48.0710975.00,-4.35,-4.89,-9.05,0.06,-0.29,-0.54,-41.12,-10.23,46.2011026.00,-4.64,-3.40,-6.92,0.36,-0.71,-0.22,-41.12,-10.23,46.2011077.00,-4.81,-4.56,-7.10,0.24,-0.16,-0.22,-41.12,-10.23,46.2011296.00,-6.70,-3.57,-11.37,0.27,-1.82,-0.44,-44.10,-8.29,45.0111347.00,-7.08,-6.08,-15.04,0.38,-3.16,-0.07,-49.55,-8.11,38.3911398.00,-9.29,-9.00,-12.22,0.70,-3.88,0.67,-49.55,-8.11,38.3911450.00,-5.85,-6.88,-5.06,0.21,-4.35,1.98,-65.72,-13.75,20.7211501.00,-4.47,-5.38,-2.78,0.57,-4.35,2.39,-65.72,-13.75,20.7211552.00,-0.47,-0.64,6.04,0.48,-4.35,2.94,-65.72,-13.75,20.7211603.00,2.60,2.52,10.14,0.11,-3.30,2.85,-63.26,-28.56,-3.7411654.00,3.74,10.70,21.15,0.12,0.48,0.96,-63.26,-28.56,-3.7411705.00,9.40,12.92,17.10,-0.88,4.37,-1.74,-63.26,-28.56,-3.7411757.00,22.53,-2.11,6.16,1.61,4.37,-4.32,-63.08,-33.67,-1.5311808.00,13.00,-20.29,-36.38,1.22,4.37,-4.32,-63.08,-33.67,-1.5311859.00,5.90,-21.59,-29.13,0.55,3.85,-1.41,-30.05,4.05,47.0511910.00,-0.94,-17.70,-28.71,0.10,0.46,1.30,-30.05,4.05,47.0511961.00,-0.22,-7.28,-22.43,0.55,-3.53,3.07,-30.40,1.94,48.7512013.00,0.61,-3.76,-10.14,1.93,-4.35,2.74,-30.40,1.94,48.7512064.00,-1.06,-3.45,-4.49,1.46,-4.35,2.89,-30.40,1.94,48.7512115.00,-2.65,-0.27,1.22,2.44,-4.35,2.78,-61.32,-5.47,22.9312166.00,-2.19,1.93,2.59,0.22,-4.07,2.41,-61.32,-5.47,22.9312392.00,-3.71,-1.20,10.02,3.34,-0.84,-1.13,-60.80,-18.33,-16.6512443.00,-6.45,-0.89,6.96,2.34,-0.04,-1.33,-60.80,-18.33,-16.6512495.00,-5.00,-0.85,9.58,3.37,-0.84,-0.74,-59.04,-21.16,-17.3212546.00,-7.84,-1.17,10.32,1.48,-0.21,-1.37,-59.04,-21.16,-17.3212598.00,-7.43,0.38,8.34,2.57,0.38,-1.43,-60.44,-22.57,-18.3412649.00,-8.00,-0.32,1.66,2.03,0.70,-1.99,-60.44,-22.57,-18.3412700.00,-6.34,-0.41,6.62,4.35,-0.61,-1.01,-60.44,-22.57,-18.3412752.00,-6.73,-0.68,6.72,4.22,-0.63,0.41,-63.61,-24.33,-12.9112803.00,-6.94,2.88,9.31,4.35,0.94,2.32,-63.61,-24.33,-12.9112855.00,-8.84,9.63,2.11,0.78,1.29,1.44,-60.09,-41.96,-0.3412906.00,-7.72,6.46,2.18,1.44,0.09,-0.31,-60.09,-41.96,-0.3412957.00,-8.26,6.91,3.95,-0.48,-0.20,-0.49,-60.09,-41.96,-0.3413009.00,-6.85,4.34,5.76,-1.77,-0.43,-1.34,-60.80,-42.31,2.0413060.00,-6.39,8.06,5.06,-1.27,0.24,-0.58,-60.80,-42.31,2.0413111.00,-7.68,3.75,3.55,0.16,0.55,-0.61,-64.49,-34.38,-2.8913163.00,-7.84,4.11,2.90,-0.32,0.32,-0.14,-64.49,-34.38,-2.8913214.00,-8.22,4.98,5.38,-0.30,0.08,-0.03,-63.78,-33.32,-1.1913266.00,-6.45,5.39,3.71,-0.17,0.22,-0.09,-63.78,-33.32,-1.1913317.00,-8.05,4.50,3.58,0.13,0.16,-0.07,-63.78,-33.32,-1.1913547.00,-8.48,3.21,3.42,-0.44,0.21,-0.20,-65.01,-32.09,2.3813599.00,-8.22,4.66,3.05,-0.61,0.27,0.33,-65.54,-30.50,2.5513650.00,-7.46,3.87,4.65,-0.20,0.15,0.29,-65.54,-30.50,2.5513702.00,-7.45,4.37,3.79,-0.09,0.11,0.41,-65.54,-30.50,2.5513753.00,-8.34,5.17,2.54,0.11,-0.13,0.10,-64.13,-32.26,2.5513805.00,-8.42,5.50,3.51,-0.02,-0.31,-0.16,-64.13,-32.26,2.5513856.00,-8.02,2.75,4.29,0.03,-0.36,-0.80,-64.84,-33.67,2.2113908.00,-8.19,4.57,3.26,-0.60,-0.23,-0.62,-64.84,-33.67,2.2113959.00,-8.02,3.65,3.60,-0.71,0.05,-0.20,-64.84,-33.67,2.2114011.00,-7.37,4.51,2.58,-0.59,0.28,0.17,-66.42,-30.32,2.0414062.00,-8.30,3.62,5.10,-0.63,0.11,0.23,-66.42,-30.32,2.0414114.00,-7.86,4.46,2.29,-0.05,0.39,0.43,-64.66,-30.68,0.0014165.00,-8.51,2.80,4.47,0.36,0.23,0.36,-64.66,-30.68,0.0014217.00,-8.22,4.17,4.08,0.09,0.01,0.47,-66.07,-32.79,2.7214268.00,-8.10,4.50,3.09,0.08,-0.19,-0.08,-66.07,-32.79,2.7214320.00,-8.13,4.68,3.41,0.13,-0.30,-0.52,-66.07,-32.79,2.7214371.00,-8.51,4.73,2.60,-0.53,-0.23,-0.72,-63.96,-32.44,2.7214423.00,-8.91,4.68,3.72,-0.41,-0.09,-0.24,-63.96,-32.44,2.7214474.00,-8.13,2.96,3.81,-0.64,0.00,-0.06,-66.24,-29.44,-0.1714693.00,-7.48,3.58,4.79,-0.06,0.05,0.44,-65.54,-31.20,0.5114745.00,-7.73,4.00,4.42,0.15,0.11,0.54,-64.49,-32.61,1.5314796.00,-8.94,4.30,3.43,0.12,-0.15,-0.05,-64.49,-32.61,1.5314848.00,-8.37,4.23,3.59,0.16,-0.32,-0.34,-65.01,-32.44,2.7214900.00,-8.38,6.15,2.67,-0.01,-0.12,-0.26,-65.01,-32.44,2.7214951.00,-8.37,4.78,2.58,-0.44,-0.13,-0.56,-65.01,-32.44,2.7215003.00,-8.31,2.36,4.14,-0.37,0.02,-0.26,-65.36,-28.91,0.3415054.00,-8.46,2.12,4.98,-0.46,-0.08,-0.01,-65.36,-28.91,0.3415106.00,-8.38,3.39,3.62,-0.39,0.19,0.19,-64.13,-29.09,-0.8515157.00,-8.32,3.36,3.61,-0.22,0.20,0.28,-64.13,-29.09,-0.8515209.00,-7.89,3.22,4.70,-0.18,0.20,0.43,-64.13,-29.09,-0.8515261.00,-7.67,3.27,4.98,-0.12,0.15,0.50,-64.84,-30.15,0.5115312.00,-8.50,4.08,4.74,0.11,0.07,0.49,-64.84,-30.15,0.5115364.00,-8.21,4.01,4.36,0.18,0.04,0.26,-64.13,-33.32,1.1915415.00,-8.28,4.17,3.77,0.23,-0.26,-0.26,-64.13,-33.32,1.1915467.00,-8.97,5.11,3.13,-0.12,-0.36,-0.45,-64.13,-33.32,1.1915518.00,-8.71,4.16,3.89,-0.28,-0.20,-0.75,-64.66,-32.79,0.6815570.00,-7.90,2.63,3.69,-0.53,-0.12,-0.58,-64.66,-32.79,0.6815621.00,-7.99,2.18,3.92,-0.40,0.03,-0.20,-65.89,-28.03,-1.5315673.00,-8.27,3.29,3.15,-0.09,0.20,0.27,-65.89,-28.03,-1.5315907.00,-8.18,4.11,3.91,0.06,0.03,0.36,-64.66,-30.68,-0.6815959.00,-7.97,3.85,3.76,0.26,-0.10,-0.13,-64.66,-30.68,-0.6816011.00,-8.68,4.97,3.75,-0.00,-0.18,-0.18,-63.08,-33.67,-0.8516062.00,-8.53,3.72,3.70,-0.20,-0.29,-0.73,-63.08,-33.67,-0.8516114.00,-7.88,0.35,4.41,-0.35,-0.11,-0.81,-63.96,-30.68,-1.3616165.00,-8.24,3.62,3.79,-0.47,0.02,-0.20,-63.96,-30.68,-1.3616217.00,-8.34,2.96,4.15,-0.41,-0.06,-0.13,-65.72,-27.85,-3.0616269.00,-7.10,1.49,5.41,-0.19,0.18,0.25,-65.72,-27.85,-3.0616320.00,-7.24,3.24,2.44,-0.15,0.25,0.43,-65.72,-27.85,-3.0616372.00,-7.25,3.76,4.46,0.16,0.23,0.72,-65.01,-29.27,-1.3616423.00,-7.25,2.21,6.65,0.11,0.07,0.57,-65.01,-29.27,-1.3616475.00,-7.43,2.27,4.91,0.16,0.07,0.24,-64.49,-32.97,-0.8516527.00,-8.35,3.95,3.87,0.23,0.07,0.11,-64.49,-32.97,-0.8516578.00,-8.55,2.47,3.89,0.09,-0.26,-0.49,-64.49,-32.97,-0.8516630.00,-8.84,4.74,3.26,-0.10,-0.34,-0.53,-65.19,-32.26,-0.8516682.00,-8.32,2.40,4.90,-0.29,-0.23,-0.70,-65.19,-32.26,-0.8516733.00,-8.02,1.60,4.64,-0.28,-0.05,-0.33,-65.54,-28.03,-3.2316785.00,-8.38,3.08,4.20,-0.27,0.09,0.04,-65.54,-28.03,-3.2316837.00,-7.61,2.16,5.25,-0.15,0.13,0.30,-64.49,-27.68,-3.2317061.00,-7.68,3.22,5.54,0.25,0.06,0.35,-65.89,-31.56,-3.9117112.00,-7.81,3.31,4.27,0.17,-0.10,-0.14,-64.31,-34.55,-1.7017164.00,-8.48,3.26,4.00,-0.03,-0.27,-0.36,-64.31,-34.55,-1.7017216.00,-8.91,3.07,4.56,-0.29,-0.25,-0.64,-63.61,-32.44,-3.4017267.00,-7.88,0.24,4.95,-0.38,-0.18,-0.82,-63.61,-32.44,-3.4017319.00,-8.25,1.57,4.32,-0.34,0.01,-0.38,-63.61,-32.44,-3.4017371.00,-8.16,2.63,3.95,-0.28,0.08,0.09,-65.01,-29.97,-3.7417422.00,-8.37,1.91,5.30,-0.05,0.19,0.45,-65.01,-29.97,-3.7417474.00,-7.48,2.82,4.15,0.00,0.20,0.52,-66.07,-30.32,-3.0617526.00,-7.05,3.21,4.64,0.00,0.26,0.70,-66.07,-30.32,-3.0617577.00,-8.04,4.07,3.96,-0.01,0.20,0.70,-66.07,-30.32,-3.0617629.00,-8.33,2.63,5.10,0.13,0.06,0.22,-64.13,-34.73,-2.2117681.00,-8.98,3.91,3.94,0.11,-0.14,-0.20,-64.13,-34.73,-2.2117733.00,-8.76,5.57,3.72,-0.04,-0.24,-0.20,-64.49,-33.67,-2.5517784.00,-7.92,3.54,4.48,-0.03,-0.21,-0.73,-64.49,-33.67,-2.5517836.00,-7.79,1.11,4.91,-0.21,-0.05,-0.57,-64.49,-33.67,-2.5517888.00,-8.23,2.55,4.15,-0.37,0.08,0.11,-64.84,-29.09,-3.2317939.00,-7.63,2.62,1.98,-0.37,0.16,0.26,-64.84,-29.09,-3.2317991.00,-8.11,2.86,5.60,-0.07,0.04,0.49,-64.31,-31.38,-3.0618209.00,-8.41,3.02,4.52,0.13,-0.18,0.00,-64.84,-34.38,-2.8918261.00,-8.01,3.93,4.88,0.03,-0.42,-0.55,-62.55,-35.61,-2.0418313.00,-8.33,4.45,4.79,-0.14,-0.24,-0.55,-62.55,-35.61,-2.0418365.00,-7.05,-2.44,5.23,-0.16,-0.16,-1.18,-64.84,-32.97,-3.2318417.00,-7.84,0.74,4.76,-0.22,-0.06,-0.51,-64.84,-32.97,-3.2318468.00,-8.47,3.62,3.70,-0.31,0.04,0.12,-64.84,-32.97,-3.2318520.00,-7.92,2.50,4.33,-0.18,0.14,0.52,-64.13,-29.09,-4.5918572.00,-8.46,2.81,4.94,-0.17,0.19,0.71,-64.13,-29.09,-4.5918624.00,-7.62,4.61,4.27,-0.14,0.20,0.78,-63.61,-32.79,-4.0818676.00,-8.23,2.84,5.13,-0.02,0.15,0.56,-63.61,-32.79,-4.0818727.00,-7.86,3.62,4.85,0.19,-0.02,0.25,-63.26,-35.96,-2.0418779.00,-7.80,3.18,4.65,0.25,-0.11,-0.19,-63.26,-35.96,-2.0418831.00,-8.28,3.38,4.45,0.23,-0.24,-0.45,-63.26,-35.96,-2.0418883.00,-8.27,2.02,5.03,-0.27,-0.32,-1.02,-64.66,-35.96,-3.0618935.00,-7.58,0.34,4.55,-0.38,-0.09,-1.10,-64.66,-35.96,-3.0618986.00,-8.95,2.58,5.33,-0.33,0.00,-0.05,-64.84,-33.32,-3.2319038.00,-7.93,2.10,4.54,-0.15,0.22,0.52,-64.84,-33.32,-3.2319090.00,-8.05,2.20,5.72,-0.17,0.09,0.48,-64.84,-33.32,-3.2319142.00,-7.62,3.47,3.37,0.05,0.34,0.95,-64.49,-34.03,-3.9119370.00,-8.83,4.33,3.80,0.09,-0.43,-0.59,-61.32,-37.20,-2.2119422.00,-8.30,1.32,5.35,-0.35,-0.24,-1.04,-61.32,-37.20,-2.2119474.00,-7.86,3.10,4.11,-0.50,-0.07,-0.75,-61.32,-37.20,-2.2119526.00,-8.48,3.03,4.50,-0.50,0.02,0.00,-64.13,-34.03,-5.2719577.00,-7.61,3.84,2.24,-0.34,0.36,0.72,-64.13,-34.03,-5.2719629.00,-7.25,3.82,3.78,-0.12,0.25,0.74,-64.13,-32.97,-4.5919681.00,-8.31,3.45,5.75,-0.28,0.31,1.08,-64.13,-32.97,-4.5919733.00,-7.40,3.76,6.02,-0.06,0.01,0.60,-62.03,-39.31,-3.5719785.00,-7.93,5.58,4.14,0.29,0.17,0.52,-62.03,-39.31,-3.5719837.00,-8.54,3.82,3.44,0.38,0.01,-0.11,-62.03,-39.31,-3.5719889.00,-8.92,6.20,2.97,0.01,-0.37,-0.41,-61.67,-40.72,-2.2119940.00,-8.12,2.21,5.03,-0.17,-0.34,-1.17,-61.67,-40.72,-2.2119992.00,-7.97,3.35,4.04,-0.54,-0.15,-0.77,-64.13,-38.26,-3.2320044.00,-8.01,0.74,5.69,-0.21,0.03,-0.24,-64.13,-38.26,-3.2320096.00,-8.82,3.20,3.53,-0.27,0.29,0.41,-64.13,-34.73,-4.5920148.00,-7.53,3.85,2.77,-0.15,0.31,0.49,-64.13,-34.73,-4.5920200.00,-7.51,3.75,3.39,-0.01,0.41,0.87,-64.13,-34.73,-4.5920252.00,-8.62,3.35,6.09,0.04,0.22,0.71,-63.96,-38.08,-3.7420304.00,-7.69,3.81,4.32,0.16,0.38,1.02,-63.96,-38.08,-3.7420523.00,-7.85,3.70,4.53,-0.51,-0.09,-0.79,-61.32,-40.37,-2.2120576.00,-7.73,2.39,4.44,-0.49,0.00,-0.23,-61.32,-40.37,-2.2120628.00,-7.66,4.08,3.31,-0.61,0.15,0.46,-63.26,-38.43,-4.7620680.00,-8.31,2.64,5.03,0.13,0.32,0.69,-63.26,-38.43,-4.7620732.00,-7.63,4.09,4.51,-0.06,0.49,1.04,-62.20,-41.25,-3.4020784.00,-8.23,4.91,4.58,0.08,0.45,1.10,-62.20,-41.25,-3.4020836.00,-8.26,4.06,4.47,0.31,0.07,0.43,-62.20,-41.25,-3.4020888.00,-8.42,4.38,4.06,0.26,-0.20,-0.17,-60.80,-45.13,-0.6820939.00,-8.64,4.26,3.85,-0.31,-0.36,-0.76,-60.80,-45.13,-0.6820991.00,-6.90,2.89,3.80,-0.70,-0.21,-0.95,-61.50,-42.31,-2.7221043.00,-7.92,3.03,3.99,-0.51,0.06,-0.46,-61.50,-42.31,-2.7221096.00,-8.04,2.85,4.79,-0.72,0.12,0.04,-61.50,-42.31,-2.7221147.00,-8.08,3.24,4.02,-0.50,0.27,0.40,-62.55,-40.90,-4.4221199.00,-11.61,1.89,2.38,0.02,-0.28,0.63,-62.55,-40.90,-4.4221251.00,-8.60,2.26,3.42,-0.48,-1.86,1.56,-60.44,-43.02,-6.1121303.00,-5.42,4.48,6.95,-0.29,-1.27,1.17,-60.44,-43.02,-6.1121355.00,-5.27,5.15,8.73,0.23,-1.07,0.54,-60.44,-43.02,-6.1121407.00,-4.82,4.73,6.61,0.96,-0.16,-0.21,-53.06,-45.48,-12.9121459.00,-5.99,5.82,6.37,0.73,-0.52,-0.26,-53.06,-45.48,-12.9121511.00,-6.83,4.75,7.60,0.97,-0.36,-0.45,-52.89,-46.01,-11.3821733.00,-6.05,4.98,6.06,1.09,0.26,-1.15,-54.29,-47.78,-8.3221785.00,-6.25,2.61,2.88,0.81,0.30,-1.36,-56.05,-46.37,-5.6121837.00,-6.67,3.60,4.60,0.53,-0.13,-1.07,-56.05,-46.37,-5.6121889.00,-6.82,3.49,2.68,0.54,0.43,-0.68,-59.57,-42.13,-2.2121941.00,-7.40,5.05,3.63,-0.09,-0.13,-0.47,-59.57,-42.13,-2.2121993.00,-6.89,3.96,4.01,-0.15,-0.51,-0.26,-61.67,-37.20,-3.2322045.00,-6.89,5.11,5.18,0.19,-0.39,-0.35,-61.67,-37.20,-3.2322097.00,-6.97,5.36,6.20,0.18,-0.28,0.14,-59.39,-37.02,-4.4222150.00,-6.98,4.61,6.67,0.35,0.02,-0.03,-59.39,-37.02,-4.4222202.00,-7.55,4.51,6.06,-0.18,0.20,0.06,-59.39,-37.02,-4.4222254.00,-7.96,4.00,5.76,-0.60,0.37,0.04,-61.15,-39.14,-3.7422306.00,-7.65,4.00,3.97,1.42,0.73,-0.13,-61.15,-39.14,-3.7422358.00,-7.77,5.78,4.11,-0.20,0.20,0.20,-62.03,-39.67,0.5122410.00,-6.98,3.62,4.81,-0.98,0.21,-0.46,-62.03,-39.67,0.5122462.00,-7.76,5.62,4.14,-0.97,0.60,0.15,-62.03,-39.67,0.5122514.00,-8.15,4.35,5.05,-3.73,-0.21,-0.70,-60.62,-37.20,-1.1922566.00,-7.65,1.93,7.00,-1.43,0.54,-1.01,-60.62,-37.20,-1.1922618.00,-8.64,4.50,6.26,-4.38,0.96,-1.99,-62.55,-26.80,-7.1322670.00,-6.97,1.02,5.99,-4.38,1.79,-3.61,-62.55,-26.80,-7.1322898.00,-10.46,-0.54,-1.80,1.75,-1.43,2.22,-61.32,-14.99,23.6122951.00,-8.76,-3.91,-2.11,3.10,-0.62,1.63,-61.32,-14.99,23.6123003.00,-9.84,0.78,0.64,2.63,0.83,2.33,-62.20,-19.75,22.4223055.00,-8.39,-1.66,-2.86,3.13,1.80,1.99,-62.20,-19.75,22.4223107.00,-8.69,0.69,-3.32,4.35,1.92,2.76,-57.28,-21.51,32.9523159.00,-9.38,3.42,-5.40,2.05,2.33,1.25,-57.28,-21.51,32.9523211.00,-8.18,2.05,-6.18,1.45,1.82,-0.50,-57.28,-21.51,32.9523263.00,-7.47,-1.06,-4.59,0.68,1.72,-1.15,-46.74,-14.81,40.0923316.00,-6.71,-1.31,-5.51,-2.29,1.66,-1.09,-46.74,-14.81,40.0923368.00,-5.83,1.15,-7.52,-2.50,2.07,-1.39,-39.71,-17.63,45.5223420.00,-4.49,1.65,-9.47,-2.17,1.94,-1.83,-39.71,-17.63,45.5223472.00,-2.87,-1.61,-10.37,-0.58,1.36,-1.29,-39.71,-17.63,45.5223524.00,-4.72,1.71,-7.50,-0.57,1.15,-0.18,-31.63,-21.51,47.9023577.00,-3.42,2.10,-10.48,-0.79,1.92,-0.50,-31.63,-21.51,47.9023629.00,-2.37,0.28,-10.45,0.49,1.10,-0.45,-26.01,-23.62,47.2223681.00,-2.58,1.62,-9.65,-0.33,0.79,-0.01,-26.01,-23.62,47.2223733.00,-2.00,0.68,-10.88,-0.19,1.01,-0.17,-26.01,-23.62,47.2223785.00,-2.11,1.99,-11.08,0.05,0.69,0.30,-20.38,-24.33,47.9023838.00,-1.97,1.88,-11.31,0.26,0.27,0.13,-20.38,-24.33,47.9024072.00,-1.24,1.81,-11.49,-0.13,0.21,0.27,-15.99,-20.27,48.4124125.00,-0.90,0.36,-9.41,0.15,0.09,-0.05,-15.11,-21.86,46.2024177.00,-1.08,0.74,-11.10,-0.08,0.09,0.15,-15.11,-21.86,46.2024229.00,-1.13,1.12,-9.49,0.08,0.16,-0.02,-15.11,-21.86,46.2024281.00,-1.39,0.53,-10.43,0.09,-0.01,0.01,-14.23,-21.33,47.7324333.00,-1.33,0.93,-9.59,0.01,0.01,0.01,-14.23,-21.33,47.7324386.00,-1.27,0.52,-10.06,0.03,-0.01,-0.05,-14.76,-20.45,48.9224438.00,-1.03,0.60,-9.30,-0.01,0.04,0.03,-14.76,-20.45,48.9224490.00,-1.06,0.21,-10.38,0.03,0.27,-0.05,-14.41,-21.16,46.8824542.00,-0.88,0.97,-10.22,-0.04,0.08,0.03,-14.41,-21.16,46.8824594.00,-0.58,0.32,-10.08,0.11,0.10,-0.11,-14.41,-21.16,46.8824647.00,-0.43,0.08,-10.14,0.08,0.09,0.06,-13.88,-20.63,46.3724699.00,-0.80,0.93,-10.50,0.05,-0.00,0.10,-13.88,-20.63,46.3724751.00,-0.63,0.07,-9.96,0.16,-0.01,-0.04,-12.12,-19.57,47.7324803.00,-0.61,0.38,-9.96,-0.04,0.14,0.15,-12.12,-19.57,47.7324856.00,-0.78,1.49,-9.33,-0.16,0.23,0.21,-12.12,-19.57,47.7324908.00,-0.41,0.31,-10.68,0.05,-0.02,-0.07,-13.00,-20.45,46.8824960.00,-0.73,0.37,-10.10,0.21,0.18,-0.40,-13.00,-20.45,46.8825012.00,-0.36,-0.08,-10.06,0.27,0.19,-0.31,-12.12,-18.51,47.7325234.00,0.44,1.64,-10.51,0.48,0.76,-0.01,-10.19,-20.10,48.2425287.00,0.25,-1.12,-9.95,2.01,-0.00,-0.14,-6.68,-19.39,47.9025339.00,0.30,0.11,-9.89,-0.42,-0.11,-0.12,-6.68,-19.39,47.9025392.00,0.85,-0.60,-10.23,0.18,0.04,-0.01,-6.50,-15.69,48.4125444.00,0.54,-0.36,-10.23,-0.02,-0.02,-0.00,-6.50,-15.69,48.4125496.00,0.56,-0.37,-10.21,-0.01,-0.01,-0.00,-6.85,-14.99,44.3325549.00,0.63,-0.52,-10.12,0.00,0.00,0.00,-6.85,-14.99,44.3325601.00,0.65,-0.50,-10.14,0.00,0.00,0.00,-6.15,-14.99,46.7125653.00,0.62,-0.47,-10.17,0.00,0.00,0.00,-6.15,-14.99,46.7125706.00,0.63,-0.48,-10.13,0.00,0.00,0.00,-6.15,-14.99,46.7125758.00,0.60,-0.47,-10.16,-0.00,-0.00,0.00,-7.03,-15.16,47.9025810.00,0.62,-0.47,-10.14,-0.00,-0.00,-0.00,-7.03,-15.16,47.9025863.00,0.62,-0.48,-10.16,-0.00,-0.00,0.00,-6.15,-15.34,46.0325915.00,0.60,-0.46,-10.17,-0.00,-0.00,0.00,-6.15,-15.34,46.0325967.00,0.61,-0.46,-10.14,-0.00,-0.00,0.00,-6.15,-15.34,46.0326020.00,0.63,-0.47,-10.14,-0.00,-0.00,0.00,-7.73,-15.16,47.5626072.00,0.62,-0.46,-10.15,-0.00,-0.00,-0.00,-7.73,-15.16,47.5626124.00,0.61,-0.47,-10.16,-0.00,-0.00,-0.00,-6.68,-15.51,47.9026177.00,0.62,-0.47,-10.17,-0.00,-0.00,0.00,-6.68,-15.51,47.9026404.00,0.63,-0.46,-10.16,-0.00,0.00,0.00,-7.20,-14.63,46.0326457.00,0.62,-0.47,-10.15,-0.00,-0.00,0.00,-7.20,-14.63,46.0326509.00,0.62,-0.47,-10.16,-0.00,0.00,0.00,-5.80,-13.57,46.7126562.00,0.63,-0.47,-10.14,0.00,0.00,-0.00,-5.80,-13.57,46.7126614.00,0.63,-0.47,-10.14,-0.00,0.00,0.00,-5.80,-13.57,46.7126667.00,0.62,-0.49,-10.13,-0.00,-0.00,0.00,-5.97,-15.16,47.9026719.00,0.63,-0.46,-10.15,-0.00,0.00,-0.00,-5.97,-15.16,47.9026772.00,0.62,-0.47,-10.15,-0.00,-0.00,0.00,-5.62,-14.10,46.2026824.00,0.62,-0.46,-10.14,-0.00,-0.00,0.00,-5.62,-14.10,46.2026876.00,0.62,-0.46,-10.18,-0.00,-0.00,0.00,-6.15,-13.22,46.3726929.00,0.62,-0.47,-10.14,-0.00,0.00,-0.00,-6.15,-13.22,46.3726981.00,0.63,-0.49,-10.12,0.00,0.00,-0.00,-6.15,-13.22,46.3727034.00,0.63,-0.46,-10.13,-0.00,-0.00,-0.00,-5.97,-16.22,46.8827086.00,0.62,-0.47,-10.13,0.00,-0.00,0.00,-5.97,-16.22,46.8827139.00,0.62,-0.46,-10.14,-0.00,0.00,0.00,-7.03,-15.16,46.5427191.00,0.62,-0.47,-10.15,-0.00,-0.00,0.00,-7.03,-15.16,46.5427244.00,0.60,-0.47,-10.17,-0.00,0.00,0.00,-6.85,-14.28,46.3727296.00,0.61,-0.47,-10.12,-0.00,0.00,-0.00,-6.85,-14.28,46.3727349.00,0.62,-0.47,-10.14,-0.00,-0.00,0.00,-6.85,-14.28,46.3727578.00,0.61,-0.47,-10.14,-0.00,0.00,0.00,-5.62,-15.16,47.2227631.00,0.60,-0.46,-10.14,-0.00,-0.00,0.00,-5.97,-15.16,47.9027684.00,0.60,-0.47,-10.16,-0.00,-0.00,0.00,-5.97,-15.16,47.9027736.00,0.63,-0.47,-10.13,0.00,0.00,0.00,-5.97,-15.16,47.9027789.00,0.62,-0.47,-10.15,0.00,-0.00,0.00,-6.85,-14.28,47.7327841.00,0.62,-0.47,-10.17,-0.00,-0.00,0.00,-6.85,-14.28,47.7327894.00,0.62,-0.47,-10.18,-0.00,-0.00,0.00,-7.38,-14.81,45.8627946.00,0.62,-0.46,-10.15,-0.00,-0.00,-0.00,-7.38,-14.81,45.8627999.00,0.61,-0.47,-10.15,-0.00,-0.00,0.00,-6.15,-14.99,46.3728051.00,0.62,-0.47,-10.14,-0.00,-0.00,0.00,-6.15,-14.99,46.3728104.00,0.61,-0.48,-10.15,-0.00,-0.00,-0.00,-6.15,-14.99,46.3728156.00,0.61,-0.47,-10.16,-0.00,-0.00,0.00,-6.33,-15.16,48.2428209.00,0.61,-0.46,-10.15,-0.00,-0.00,0.00,-6.33,-15.16,48.2428261.00,0.63,-0.47,-10.17,-0.00,-0.00,0.00,-7.91,-14.99,48.0728314.00,0.62,-0.47,-10.15,-0.00,-0.00,0.00,-7.91,-14.99,48.0728367.00,0.62,-0.47,-10.17,0.00,-0.00,0.00,-5.97,-14.81,45.5228419.00,0.61,-0.47,-10.13,-0.00,0.00,-0.00,-5.97,-14.81,45.5228472.00,0.62,-0.46,-10.13,-0.00,-0.00,-0.00,-5.97,-14.81,45.5228524.00,0.60,-0.47,-10.15,-0.00,-0.00,0.00,-5.97,-16.22,47.5628577.00,0.61,-0.47,-10.15,-0.00,0.00,0.00,-5.97,-16.22,47.5628753.00,0.62,-0.47,-10.17,-0.00,0.00,-0.00,-6.85,-15.34,46.7128806.00,0.62,-0.47,-10.15,-0.00,-0.00,0.00,-6.85,-15.34,46.7128858.00,0.61,-0.47,-10.13,-0.00,-0.00,0.00,-6.85,-15.34,46.7128911.00,0.62,-0.47,-10.15,-0.00,-0.00,-0.00,-7.38,-14.10,47.2228963.00,0.62,-0.47,-10.14,-0.00,0.00,0.00,-7.38,-14.10,47.2229016.00,0.62,-0.46,-10.15,-0.00,-0.00,-0.00,-6.68,-14.46,46.8829069.00,0.61,-0.47,-10.15,-0.00,-0.00,0.00,-6.68,-14.46,46.8829121.00,0.62,-0.47,-10.14,-0.00,0.00,0.00,-6.68,-14.46,46.8829174.00,0.62,-0.45,-10.14,-0.00,-0.00,-0.00,-6.50,-14.28,47.7329226.00,0.62,-0.47,-10.13,-0.00,-0.00,0.00,-6.50,-14.28,47.7329279.00,0.61,-0.47,-10.16,-0.00,-0.00,0.00,-5.45,-16.40,47.7329332.00,0.61,-0.46,-10.15,-0.00,-0.00,0.00,-5.45,-16.40,47.7329384.00,0.62,-0.46,-10.17,-0.00,-0.00,0.00,-5.97,-14.46,47.5629437.00,0.61,-0.48,-10.15,-0.00,-0.00,-0.00,-5.97,-14.46,47.5629489.00,0.62,-0.47,-10.16,-0.00,0.00,0.00,-5.62,-14.81,47.2229542.00,0.62,-0.47,-10.15,-0.00,-0.00,-0.00,-5.62,-14.81,47.2229595.00,0.62,-0.47,-10.14,-0.00,-0.00,-0.00,-5.62,-14.81,47.2229647.00,0.62,-0.47,-10.14,-0.00,-0.00,-0.00,-7.20,-15.34,46.7129700.00,0.62,-0.47,-10.15,-0.00,-0.00,0.00,-7.20,-15.34,46.7129934.00,0.62,-0.47,-10.14,-0.00,-0.00,0.00,-6.15,-14.99,47.0529987.00,0.63,-0.47,-10.16,-0.00,-0.00,0.00,-4.92,-14.46,46.8830040.00,0.61,-0.46,-10.16,-0.00,-0.00,0.00,-4.92,-14.46,46.8830093.00,0.63,-0.47,-10.15,-0.00,-0.00,0.00,-4.92,-14.46,46.8830145.00,0.62,-0.48,-10.16,-0.00,-0.00,0.00,-7.03,-14.46,47.2230198.00,0.62,-0.46,-10.14,-0.00,0.00,-0.00,-7.03,-14.46,47.2230251.00,0.62,-0.46,-10.18,-0.00,-0.00,0.00,-6.15,-14.63,46.0330304.00,0.62,-0.47,-10.15,-0.00,-0.00,-0.00,-6.15,-14.63,46.0330356.00,0.63,-0.46,-10.16,-0.00,-0.00,-0.00,-6.15,-14.63,46.0330409.00,0.62,-0.47,-10.14,0.00,0.00,-0.00,-6.68,-15.51,47.5630462.00,0.61,-0.48,-10.13,0.00,-0.00,0.00,-6.68,-15.51,47.5630514.00,0.62,-0.47,-10.15,-0.00,0.00,0.00,-6.68,-15.51,47.5630567.00,0.63,-0.47,-10.16,-0.00,-0.00,0.00,-6.68,-15.51,47.5630620.00,0.62,-0.46,-10.13,-0.00,0.00,0.00,-6.68,-15.51,47.5630673.00,0.60,-0.46,-10.15,-0.00,-0.00,0.00,-6.68,-15.16,46.5430725.00,0.64,-0.45,-10.13,-0.00,-0.00,-0.00,-6.68,-15.16,46.5430778.00,0.61,-0.46,-10.13,-0.00,0.00,0.00,-5.97,-14.81,46.2030831.00,0.61,-0.46,-10.14,-0.00,0.00,-0.00,-5.97,-14.81,46.2031053.00,0.63,-0.47,-10.14,-0.00,-0.00,-0.00,-7.38,-14.46,47.5631106.00,0.62,-0.47,-10.14,-0.00,0.00,0.00,-7.38,-14.46,47.5631159.00,0.61,-0.47,-10.17,-0.00,-0.00,0.00,-5.97,-13.40,46.8831211.00,0.61,-0.45,-10.15,-0.00,-0.00,0.00,-5.97,-13.40,46.8831264.00,0.62,-0.46,-10.16,-0.00,-0.00,-0.00,-6.33,-15.16,46.5431317.00,0.61,-0.47,-10.15,-0.00,-0.00,0.00,-6.33,-15.16,46.5431370.00,0.62,-0.47,-10.16,-0.00,-0.00,0.00,-6.50,-13.93,47.3931422.00,0.61,-0.47,-10.14,-0.00,0.00,0.00,-6.50,-13.93,47.3931475.00,0.63,-0.46,-10.12,-0.00,-0.00,0.00,-6.50,-13.93,47.3931528.00,0.63,-0.45,-10.17,-0.00,-0.00,0.00,-6.33,-15.87,47.5631581.00,0.61,-0.46,-10.13,-0.00,-0.00,0.00,-6.33,-15.87,47.5631634.00,0.63,-0.48,-10.16,-0.00,-0.00,0.00,-7.38,-16.22,47.5631686.00,0.62,-0.46,-10.15,-0.00,-0.00,-0.00,-7.38,-16.22,47.5631739.00,0.62,-0.46,-10.13,-0.00,-0.00,0.00,-7.38,-16.22,47.5631792.00,0.61,-0.47,-10.13,-0.00,-0.00,0.00,-6.68,-14.81,47.2231845.00,0.62,-0.46,-10.14,-0.00,-0.00,0.00,-6.68,-14.81,47.2231898.00,0.62,-0.49,-10.16,-0.00,0.00,0.00,-7.38,-13.40,47.9031950.00,0.62,-0.47,-10.14,-0.00,-0.00,0.00,-7.38,-13.40,47.9032003.00,0.62,-0.48,-10.15,-0.00,0.00,0.00,-7.38,-13.40,47.9032239.00,0.61,-0.46,-10.15,-0.00,-0.00,0.00,-7.03,-16.57,47.9032292.00,0.63,-0.47,-10.15,-0.00,-0.00,0.00,-6.33,-14.81,46.8832345.00,0.60,-0.48,-10.16,-0.00,0.00,0.00,-6.33,-14.81,46.8832398.00,0.61,-0.47,-10.15,-0.00,0.00,0.00,-7.03,-14.10,47.9032450.00,0.62,-0.47,-10.14,-0.00,-0.00,0.00,-7.03,-14.10,47.9032503.00,0.62,-0.47,-10.14,-0.00,-0.00,0.00,-7.03,-14.10,47.9032556.00,0.62,-0.47,-10.16,-0.00,-0.00,0.00,-6.85,-14.63,47.7332609.00,0.61,-0.47,-10.14,-0.00,0.00,0.00,-6.85,-14.63,47.7332662.00,0.62,-0.46,-10.16,-0.00,-0.00,0.00,-5.10,-15.34,47.0532715.00,0.62,-0.47,-10.15,-0.00,-0.00,0.00,-5.10,-15.34,47.0532768.00,0.62,-0.46,-10.16,-0.00,-0.00,-0.00,-7.03,-14.10,46.8832821.00,0.62,-0.47,-10.15,-0.00,-0.00,0.00,-7.03,-14.10,46.8832874.00,0.64,-0.47,-10.15,-0.00,0.00,-0.00,-6.85,-14.63,47.7332927.00,0.62,-0.48,-10.15,-0.00,-0.00,0.00,-6.85,-14.63,47.7332979.00,0.62,-0.46,-10.14,-0.00,-0.00,0.00,-6.85,-14.63,47.7333032.00,0.62,-0.47,-10.17,-0.00,-0.00,-0.00,-7.73,-15.51,47.5633085.00,0.62,-0.47,-10.16,-0.00,-0.00,0.00,-7.73,-15.51,47.5633138.00,0.63,-0.46,-10.16,-0.00,-0.00,0.00,-7.91,-15.69,45.6933191.00,0.62,-0.47,-10.14,-0.00,-0.00,-0.00,-7.91,-15.69,45.6933411.00,0.62,-0.45,-10.14,-0.00,-0.00,0.00,-6.68,-15.51,45.8633464.00,0.63,-0.46,-10.18,-0.00,-0.00,0.00,-6.68,-15.51,45.8633517.00,0.61,-0.47,-10.16,-0.00,-0.00,0.00,-5.62,-15.87,47.5633570.00,0.64,-0.47,-10.12,-0.00,-0.00,0.00,-5.62,-15.87,47.5633623.00,0.62,-0.47,-10.14,0.00,-0.00,-0.00,-5.62,-15.87,47.5633676.00,0.63,-0.47,-10.15,-0.00,0.00,0.00,-6.15,-14.63,47.3933729.00,0.62,-0.47,-10.15,-0.00,0.00,0.00,-6.15,-14.63,47.3933782.00,0.60,-0.48,-10.16,-0.00,-0.00,0.00,-6.33,-14.46,47.5633835.00,0.62,-0.47,-10.13,-0.00,-0.00,0.00,-6.33,-14.46,47.5633888.00,0.63,-0.47,-10.14,-0.00,-0.00,-0.00,-6.85,-14.99,46.7133941.00,0.63,-0.48,-10.16,-0.00,0.00,-0.00,-6.85,-14.99,46.7133994.00,0.62,-0.48,-10.12,-0.00,-0.00,0.00,-6.85,-14.99,46.7134047.00,0.62,-0.47,-10.17,-0.00,0.00,-0.00,-5.97,-13.40,46.5434100.00,0.62,-0.47,-10.14,-0.00,0.00,-0.00,-5.97,-13.40,46.5434154.00,0.61,-0.46,-10.12,0.00,0.00,-0.00,-8.08,-14.10,47.5634207.00,0.59,-0.46,-10.15,-0.00,-0.00,0.00,-8.08,-14.10,47.5634260.00,0.60,-0.47,-10.17,-0.00,-0.00,-0.00,-6.85,-14.99,47.3934313.00,0.61,-0.45,-10.13,-0.00,-0.00,0.00,-6.85,-14.99,47.3934366.00,0.62,-0.46,-10.15,-0.00,-0.00,-0.00,-6.85,-14.99,47.3934588.00,0.62,-0.44,-10.15,-0.00,-0.00,0.00,-6.50,-14.99,47.0534641.00,0.61,-0.46,-10.17,-0.00,-0.00,0.00,-6.85,-14.63,45.3534694.00,0.61,-0.47,-10.15,-0.00,0.00,-0.00,-6.85,-14.63,45.3534748.00,0.61,-0.46,-10.14,-0.00,-0.00,0.00,-6.85,-14.63,45.3534801.00,0.60,-0.46,-10.14,-0.00,-0.00,0.00,-7.73,-14.81,46.8834854.00,0.60,-0.45,-10.16,-0.00,-0.00,0.00,-7.73,-14.81,46.8834907.00,0.63,-0.47,-10.18,-0.00,-0.00,-0.00,-7.03,-15.87,46.8834960.00,0.63,-0.46,-10.15,-0.00,-0.00,0.00,-7.03,-15.87,46.8835013.00,0.61,-0.47,-10.18,-0.00,-0.00,-0.00,-7.20,-15.69,46.7135066.00,0.64,-0.47,-10.15,-0.00,-0.00,-0.00,-7.20,-15.69,46.7135119.00,0.62,-0.48,-10.13,-0.00,-0.00,0.00,-7.20,-15.69,46.7135173.00,0.62,-0.48,-10.14,-0.00,-0.00,0.00,-7.38,-14.81,46.5435226.00,0.61,-0.47,-10.16,0.00,-0.00,0.00,-7.38,-14.81,46.5435279.00,0.61,-0.45,-10.14,-0.00,-0.00,-0.00,-6.33,-14.81,47.9035332.00,0.62,-0.47,-10.15,-0.00,-0.00,0.00,-6.33,-14.81,47.9035385.00,0.64,-0.47,-10.15,-0.00,-0.00,0.00,-6.33,-14.81,47.9035438.00,0.63,-0.48,-10.15,-0.00,-0.00,0.00,-6.33,-14.10,46.2035491.00,0.63,-0.48,-10.14,-0.00,-0.00,0.00,-6.33,-14.10,46.2035544.00,0.61,-0.47,-10.14,-0.00,-0.00,0.00,-7.56,-15.69,46.0335782.00,0.60,-0.47,-10.16,-0.00,-0.00,0.00,-6.15,-14.63,46.0335836.00,0.61,-0.46,-10.13,-0.00,-0.00,0.00,-6.15,-14.63,46.0335889.00,0.63,-0.48,-10.15,0.00,0.00,-0.00,-6.15,-14.63,46.0335942.00,0.62,-0.47,-10.14,-0.00,-0.00,0.00,-6.85,-14.99,45.0135995.00,0.62,-0.47,-10.12,-0.00,-0.00,0.00,-6.85,-14.99,45.0136048.00,0.62,-0.48,-10.14,-0.00,-0.00,-0.00,-5.27,-15.16,45.5236101.00,0.62,-0.47,-10.16,0.00,-0.00,-0.00,-5.27,-15.16,45.5236155.00,0.63,-0.47,-10.17,-0.00,-0.00,-0.00,-6.15,-14.63,45.6936208.00,0.62,-0.47,-10.15,-0.00,-0.00,0.00,-6.15,-14.63,45.6936261.00,0.62,-0.46,-10.17,-0.00,-0.00,0.00,-6.85,-14.28,45.0136314.00,0.63,-0.48,-10.14,-0.00,0.00,-0.00,-6.85,-14.28,45.0136367.00,0.61,-0.46,-10.15,-0.00,-0.00,0.00,-6.85,-14.28,45.0136420.00,0.61,-0.47,-10.16,-0.00,-0.00,-0.00,-7.20,-14.99,46.7136474.00,0.63,-0.48,-10.12,-0.00,-0.00,0.00,-7.20,-14.99,46.7136527.00,0.62,-0.47,-10.17,-0.00,-0.00,0.00,-7.03,-15.16,46.8836580.00,0.61,-0.46,-10.12,-0.00,0.00,0.00,-7.03,-15.16,46.8836634.00,0.61,-0.48,-10.16,-0.00,-0.00,0.00,-5.97,-13.75,46.5436687.00,0.62,-0.47,-10.15,-0.00,-0.00,0.00,-5.97,-13.75,46.5436740.00,0.62,-0.47,-10.13,-0.00,-0.00,-0.00,-5.97,-13.75,46.5436793.00,0.61,-0.46,-10.15,-0.00,0.00,0.00,-8.08,-15.16,46.5437027.00,0.61,-0.46,-10.16,-0.00,-0.00,0.00,-6.68,-14.81,46.5437080.00,0.61,-0.46,-10.14,-0.00,-0.00,0.00,-6.68,-14.81,46.5437133.00,0.62,-0.47,-10.16,-0.00,0.00,0.00,-6.15,-14.99,46.7137187.00,0.62,-0.47,-10.15,0.00,-0.00,-0.00,-6.15,-14.99,46.7137240.00,0.63,-0.48,-10.15,0.00,0.00,-0.00,-6.15,-14.99,46.7137293.00,0.65,-0.50,-10.16,0.00,0.00,-0.00,-7.56,-15.34,45.0137347.00,0.61,-0.45,-10.12,-0.00,-0.00,0.00,-7.56,-15.34,45.0137400.00,0.63,-0.48,-10.19,-0.00,0.00,0.00,-7.73,-15.51,45.8637453.00,0.62,-0.47,-10.06,0.00,-0.00,-0.00,-7.73,-15.51,45.8637507.00,0.66,-0.53,-10.11,0.00,0.00,-0.00,-7.73,-15.51,45.8637560.00,0.69,-0.52,-10.17,0.01,0.00,-0.00,-6.33,-15.16,45.8637613.00,0.65,-0.49,-10.12,0.00,0.00,-0.00,-6.33,-15.16,45.8637667.00,0.65,-0.51,-10.16,0.00,0.00,0.00,-8.26,-14.28,45.0137720.00,0.63,-0.48,-10.09,0.00,0.00,-0.00,-8.26,-14.28,45.0137773.00,0.64,-0.49,-10.18,0.00,-0.00,-0.00,-6.68,-14.81,44.5037827.00,0.63,-0.48,-10.12,0.00,0.00,0.00,-6.68,-14.81,44.5037880.00,0.82,-0.54,-10.32,0.00,0.01,0.01,-6.68,-14.81,44.5037933.00,0.92,-0.74,-10.06,0.00,-0.00,0.00,-6.85,-14.28,45.0137987.00,0.23,-0.01,-10.11,-0.05,-0.02,0.00,-6.85,-14.28,45.0138214.00,0.61,-0.38,-10.18,-0.01,-0.01,0.00,-7.91,-15.34,45.6938267.00,0.57,-0.48,-10.11,0.00,-0.00,-0.00,-6.85,-14.99,45.3538320.00,0.39,0.90,-11.34,-0.19,-0.02,-0.24,-6.85,-14.99,45.3538374.00,0.51,-0.87,-10.11,0.08,-0.04,-0.43,-6.85,-14.99,45.3538427.00,0.61,-0.62,-10.11,0.02,-0.04,-0.46,-8.26,-14.99,42.9738481.00,1.47,1.52,-11.98,-2.18,-0.36,1.19,-8.26,-14.99,42.9738534.00,-0.17,0.95,-9.61,-1.14,-0.22,1.20,-10.02,-21.33,44.3338588.00,0.87,3.08,-11.47,-0.80,0.31,0.71,-10.02,-21.33,44.3338641.00,0.71,1.16,-10.17,-0.19,0.32,-0.75,-7.56,-22.39,43.3138695.00,0.59,1.21,-10.36,0.24,0.24,-0.53,-7.56,-22.39,43.3138748.00,0.42,0.97,-10.40,0.80,0.27,-0.33,-7.56,-22.39,43.3138801.00,0.89,-0.18,-9.47,0.80,-0.21,-0.13,-9.49,-18.69,43.1438855.00,0.76,-0.61,-9.89,0.73,0.01,-0.02,-9.49,-18.69,43.1438908.00,0.69,-0.25,-10.24,-0.03,0.01,0.00,-7.20,-15.69,44.3338962.00,0.62,-0.35,-10.13,-0.00,0.00,0.00,-7.20,-15.69,44.3339015.00,0.59,-0.32,-10.16,-0.00,0.00,0.00,-7.20,-15.69,43.6539069.00,0.57,-0.31,-10.14,0.00,-0.00,0.00,-7.20,-15.69,43.6539122.00,0.60,-0.31,-10.13,-0.00,0.00,0.00,-7.20,-15.69,43.6539175.00,0.59,-0.28,-10.17,-0.00,0.00,0.00,-6.33,-16.22,44.1639405.00,0.58,-0.29,-10.17,-0.00,0.00,0.00,-6.15,-15.69,42.9739459.00,0.59,-0.30,-10.15,-0.00,-0.00,0.00,-6.15,-15.69,42.9739512.00,0.57,-0.31,-10.15,-0.00,-0.00,0.00,-6.15,-15.69,42.9739566.00,0.57,-0.28,-10.17,-0.00,-0.00,0.00,-7.56,-15.69,44.6739620.00,0.57,-0.29,-10.14,-0.00,-0.00,0.00,-7.56,-15.69,44.6739678.00,0.94,1.13,-11.78,-0.18,-1.08,-0.95,-7.38,-15.87,44.5039729.00,-0.87,0.80,-9.79,1.99,-2.19,-4.32,-7.38,-15.87,44.5039780.00,-0.40,-1.87,-9.86,1.15,-1.85,-4.32,-18.63,-14.46,46.5439831.00,1.01,-1.10,-10.06,0.50,-1.45,-4.32,-18.63,-14.46,46.5439882.00,-0.39,-4.01,-11.12,0.11,-0.83,-3.73,-18.63,-14.46,46.5439933.00,-1.43,-4.67,-7.71,3.08,-1.08,-1.16,-27.76,-10.58,44.5039984.00,-1.07,-4.62,-9.49,0.39,0.35,-1.08,-27.76,-10.58,44.5040035.00,-0.72,-3.50,-8.41,1.55,0.36,-1.67,-27.41,-3.53,45.8640086.00,1.26,-5.45,-10.65,-0.14,-1.08,-2.44,-27.41,-3.53,45.8640137.00,-0.13,-4.85,-9.18,0.94,-2.01,-1.48,-29.87,2.12,43.1440188.00,-1.65,-6.06,-8.33,0.56,-1.86,-1.06,-29.87,2.12,43.1440240.00,-0.11,-5.88,-6.93,0.27,0.06,-1.11,-29.87,2.12,43.1440421.00,-0.88,-0.70,-11.09,-1.67,1.65,0.86,-33.03,-8.81,44.8440473.00,-1.13,-1.19,-10.99,-0.21,-0.73,-2.35,-33.03,-8.81,44.8440524.00,-0.91,-4.05,-8.44,0.10,-1.99,-3.27,-35.67,-7.93,45.0140575.00,-0.81,-2.03,-10.13,-0.31,0.35,-0.73,-35.67,-7.93,45.0140626.00,-1.90,-1.90,-8.89,-0.76,0.93,-0.63,-35.67,-7.93,45.0140677.00,1.41,-0.86,-11.96,-2.42,1.34,-0.43,-33.38,-9.17,44.8440729.00,-0.16,-0.29,-10.74,-0.22,0.40,1.10,-33.38,-9.17,44.8440780.00,0.47,0.70,-12.15,0.27,-0.24,0.09,-30.75,-15.34,45.3540831.00,0.61,-3.29,-10.19,0.87,-2.11,1.14,-30.75,-15.34,45.3540882.00,-1.02,-1.28,-10.15,0.42,0.39,-0.53,-30.75,-15.34,45.3540933.00,-0.49,-2.04,-10.21,0.35,0.19,-0.29,-34.61,-12.87,45.0140985.00,-1.81,-1.20,-9.77,0.00,-0.09,0.04,-34.61,-12.87,45.0141036.00,-0.65,-1.91,-10.29,0.48,-0.20,-0.66,-34.09,-12.34,44.8441087.00,-0.50,-2.98,-9.31,0.14,-0.02,-0.34,-34.09,-12.34,44.8441138.00,-1.18,-1.84,-9.59,0.12,0.35,0.92,-33.74,-10.93,43.8241190.00,-0.52,-1.28,-11.05,0.06,1.38,0.86,-33.74,-10.93,43.8241241.00,-0.23,-1.15,-10.61,-0.24,0.40,-0.01,-33.74,-10.93,43.8241292.00,0.15,-1.55,-11.01,0.13,-0.45,-0.59,-30.92,-12.69,42.8041343.00,-1.25,-3.07,-8.20,-0.19,-1.50,-0.27,-30.92,-12.69,42.8041395.00,-1.78,-1.02,-9.21,-0.15,0.70,0.73,-30.92,-12.69,42.8041622.00,0.77,0.22,-10.68,-0.37,0.48,-0.63,-29.17,-16.22,45.1841674.00,0.84,-0.53,-10.23,-0.01,-0.11,-0.82,-28.46,-17.28,46.5441725.00,0.16,-2.67,-7.26,0.18,-1.18,0.45,-28.46,-17.28,46.5441776.00,1.04,0.45,-11.19,-0.97,1.40,0.70,-28.82,-19.75,48.2441828.00,0.85,0.46,-10.49,-0.19,0.05,-0.20,-28.82,-19.75,48.2441879.00,0.76,0.43,-10.73,0.53,-0.24,-1.49,-28.82,-19.75,48.2441930.00,1.19,-0.04,-10.71,0.49,-0.15,-1.51,-27.76,-16.92,49.6041981.00,0.21,-0.65,-10.99,-0.93,0.70,1.83,-27.76,-16.92,49.6042033.00,1.13,0.44,-11.45,-0.35,0.23,0.59,-27.76,-18.69,47.9042084.00,0.39,-0.44,-9.86,0.17,-0.12,0.01,-27.76,-18.69,47.9042135.00,0.54,-0.41,-10.18,-0.01,0.02,0.00,-27.76,-18.69,47.9042186.00,0.56,-0.40,-10.15,0.03,-0.00,-0.00,-28.64,-17.81,47.0542238.00,0.52,-0.27,-10.20,-0.05,0.00,-0.01,-28.64,-17.81,47.0542289.00,0.56,-0.36,-10.22,0.03,-0.01,-0.00,-28.29,-17.45,46.3742340.00,0.51,-0.34,-10.29,0.04,-0.08,0.01,-28.29,-17.45,46.3742392.00,0.36,-0.46,-10.02,0.09,-0.08,0.01,-28.29,-17.45,46.3742443.00,0.42,-0.51,-10.09,0.02,0.01,-0.00,-29.17,-19.75,47.2242494.00,0.44,-0.42,-10.17,-0.05,0.08,0.00,-29.17,-19.75,47.2242546.00,0.41,-0.51,-9.96,-0.10,0.14,-0.01,-27.41,-17.28,46.5442774.00,0.19,0.47,-10.10,0.32,0.07,-0.29,-27.59,-20.27,47.3942825.00,0.81,-1.55,-9.59,-0.11,-0.07,-0.65,-26.88,-17.81,48.0742876.00,0.58,0.68,-10.51,-0.63,-0.32,-0.05,-26.88,-17.81,48.0742928.00,-0.59,0.50,-9.94,-0.37,-0.29,0.05,-28.64,-19.22,46.3742979.00,-0.56,1.95,-10.70,-0.30,-0.08,0.98,-28.64,-19.22,46.3743030.00,-0.09,0.72,-10.23,-0.01,-0.02,-0.29,-29.69,-20.27,45.3543082.00,0.11,0.40,-10.17,-0.09,-0.07,-0.29,-29.69,-20.27,45.3543133.00,0.42,-0.06,-10.25,0.08,0.04,-0.07,-29.69,-20.27,45.3543185.00,0.23,0.19,-10.19,0.01,0.01,0.00,-29.52,-19.39,47.2243236.00,0.25,0.11,-10.18,0.01,0.00,0.00,-29.52,-19.39,47.2243287.00,0.20,0.20,-10.22,-0.02,-0.01,-0.00,-28.99,-19.92,47.3943339.00,0.24,0.13,-10.17,-0.00,-0.00,-0.00,-28.99,-19.92,47.3943390.00,0.23,0.16,-10.19,-0.00,-0.00,0.00,-28.99,-19.92,47.3943442.00,0.24,0.16,-10.22,-0.01,-0.00,0.00,-30.05,-19.57,47.3943493.00,0.26,0.18,-10.37,0.11,0.06,0.05,-30.05,-19.57,47.3943545.00,0.56,0.84,-10.75,-0.19,-0.09,0.11,-30.22,-20.80,47.2243596.00,0.78,-1.00,-10.05,-0.24,0.05,0.82,-30.22,-20.80,47.2243647.00,-0.99,2.06,-9.97,-0.06,-0.05,0.50,-28.82,-20.10,46.8843699.00,0.78,0.00,-10.21,0.07,0.04,-2.33,-28.82,-20.10,46.8843924.00,-0.16,0.90,-10.23,-0.20,-0.06,0.66,-30.57,-20.80,47.9043976.00,0.17,0.44,-10.21,-0.00,-0.01,0.01,-30.57,-20.80,47.9044027.00,0.23,0.15,-10.19,0.05,-0.01,-0.01,-30.22,-21.51,47.9044079.00,0.15,0.36,-10.25,0.07,-0.00,-0.03,-30.22,-21.51,47.9044130.00,0.20,0.13,-10.14,0.06,-0.03,-0.04,-30.22,-21.51,47.9044182.00,0.14,-0.04,-10.09,0.25,-0.01,-0.13,-29.69,-20.63,48.7544233.00,0.16,0.12,-10.15,-0.04,0.08,0.10,-29.69,-20.63,48.7544285.00,0.24,0.32,-10.09,-0.32,0.12,0.14,-29.69,-20.27,46.7144336.00,-0.12,0.94,-10.51,0.16,-0.05,0.19,-29.69,-20.27,46.7144388.00,0.37,-0.37,-10.07,0.06,0.01,-0.27,-29.69,-20.27,46.7144439.00,0.19,-0.30,-9.64,-0.27,0.04,0.36,-28.64,-20.63,47.0544491.00,0.07,0.53,-10.31,-0.53,-0.27,-0.27,-28.64,-20.63,47.0544543.00,0.17,0.33,-10.20,0.01,0.01,-0.29,-30.40,-20.98,47.3944594.00,0.21,0.17,-10.18,0.02,0.00,-0.20,-30.40,-20.98,47.3944646.00,0.14,0.26,-10.24,-0.04,0.00,-0.08,-30.40,-20.98,47.3944697.00,0.18,0.40,-10.19,-0.04,0.00,0.00,-32.15,-21.33,46.7144749.00,0.12,0.48,-10.19,0.01,0.00,0.06,-32.15,-21.33,46.7144800.00,0.17,0.35,-10.19,-0.03,0.00,-0.01,-30.75,-20.27,47.7344852.00,0.15,0.41,-10.20,-0.03,0.00,0.01,-30.75,-20.27,47.7345073.00,0.16,0.36,-10.19,-0.01,0.00,-0.02,-31.45,-20.98,46.0345125.00,0.15,0.41,-10.18,-0.00,-0.00,0.00,-31.45,-20.98,46.0345177.00,0.16,0.43,-10.19,-0.00,0.00,0.00,-30.92,-21.16,46.8845228.00,0.16,0.39,-10.16,0.10,0.01,-0.01,-30.92,-21.16,46.8845280.00,0.17,0.27,-10.17,0.07,0.01,0.09,-29.34,-20.63,47.3945332.00,0.18,0.34,-10.21,-0.00,0.01,0.01,-29.34,-20.63,47.3945383.00,0.27,0.20,-10.17,0.04,0.01,0.04,-29.34,-20.63,47.3945435.00,0.18,0.35,-10.20,-0.05,-0.00,0.01,-30.22,-21.86,47.5645487.00,0.16,0.33,-10.19,0.01,0.00,0.02,-30.22,-21.86,47.5645538.00,0.20,0.29,-10.19,0.04,0.01,0.01,-29.17,-20.45,47.5645590.00,0.16,0.34,-10.22,-0.01,-0.00,0.02,-29.17,-20.45,47.5645642.00,0.18,0.36,-10.21,0.01,-0.00,-0.00,-29.17,-20.45,47.5645693.00,0.20,0.25,-10.18,0.01,-0.00,-0.06,-29.34,-20.63,48.0745745.00,0.16,0.29,-10.16,0.03,-0.02,0.00,-29.34,-20.63,48.0745797.00,0.17,0.25,-10.19,0.01,-0.02,-0.01,-30.05,-22.04,47.3945848.00,0.17,0.39,-10.20,-0.00,0.00,0.00,-30.05,-22.04,47.3945900.00,0.16,0.41,-10.21,0.01,-0.00,-0.00,-30.05,-22.04,47.3945952.00,0.17,0.21,-10.18,0.05,-0.02,-0.07,-29.87,-21.51,48.5846004.00,0.17,0.58,-10.36,0.02,-0.00,-0.01,-29.87,-21.51,48.5846225.00,0.19,0.20,-10.17,-0.06,0.00,-0.02,-31.10,-20.63,47.0546277.00,0.15,0.27,-10.13,-0.04,0.03,0.06,-31.10,-20.63,47.0546328.00,0.14,0.36,-10.18,0.02,-0.01,-0.03,-30.40,-20.63,48.0746380.00,0.15,0.28,-10.17,-0.01,-0.03,-0.01,-30.40,-20.63,48.0746432.00,0.16,0.41,-10.24,-0.03,0.02,0.07,-30.40,-21.33,47.7346484.00,0.15,0.42,-10.20,0.00,0.00,0.02,-30.40,-21.33,47.7346535.00,0.19,0.30,-10.18,0.03,0.00,0.03,-29.34,-20.98,46.7146587.00,0.19,0.35,-10.18,0.01,0.00,-0.01,-29.34,-20.98,46.7146638.00,0.19,0.31,-10.15,0.03,0.00,-0.00,-29.34,-20.98,46.7146690.00,0.19,0.31,-10.18,0.03,0.00,-0.03,-30.92,-20.80,47.2246742.00,0.20,0.28,-10.19,0.05,0.03,-0.01,-30.92,-20.80,47.2246794.00,0.22,0.27,-10.21,0.02,0.01,0.00,-30.92,-20.80,46.8846845.00,0.18,0.35,-10.22,0.08,0.03,0.03,-30.92,-20.80,46.8846897.00,0.23,0.15,-10.15,0.10,0.02,-0.01,-30.92,-20.80,46.8846949.00,0.24,0.08,-10.18,0.10,0.01,-0.01,-29.52,-21.16,45.5247001.00,0.27,0.06,-10.14,0.20,0.01,-0.08,-29.52,-21.16,45.5247052.00,0.39,-0.10,-10.25,-0.05,0.01,0.21,-29.87,-19.75,45.8647104.00,0.17,0.21,-10.11,-0.37,0.04,0.43,-29.87,-19.75,45.8647156.00,0.41,0.32,-10.49,-0.36,-0.10,0.16,-29.87,-19.75,45.8647329.00,0.34,0.03,-10.14,-0.21,0.07,0.09,-29.69,-21.33,46.0347381.00,0.17,0.61,-10.24,-0.12,-0.12,-0.93,-29.69,-21.33,46.0347433.00,0.24,0.53,-10.31,0.01,0.00,-0.06,-30.92,-21.51,47.2247485.00,0.14,0.38,-10.16,-0.04,-0.01,-0.00,-30.92,-21.51,47.2247536.00,0.15,0.39,-10.19,-0.01,-0.00,0.02,-29.87,-21.86,47.9047588.00,0.15,0.43,-10.18,-0.03,-0.00,0.04,-29.87,-21.86,47.9047640.00,0.14,0.40,-10.22,-0.01,-0.00,-0.00,-29.87,-21.86,47.9047692.00,0.14,0.46,-10.22,-0.01,0.00,0.01,-30.75,-22.04,48.0747743.00,0.15,0.45,-10.20,0.00,0.00,-0.00,-30.75,-22.04,48.0747795.00,0.16,0.43,-10.19,-0.01,-0.00,0.00,-29.69,-22.04,48.0747847.00,0.16,0.43,-10.14,0.00,0.00,-0.02,-29.69,-22.04,48.0747899.00,0.17,0.43,-10.18,0.01,-0.00,-0.01,-29.69,-22.04,48.0747950.00,0.17,0.39,-10.17,-0.08,-0.01,0.12,-30.75,-21.33,47.7348002.00,0.13,0.61,-10.20,0.03,-0.00,0.03,-30.75,-21.33,47.7348054.00,0.19,0.29,-10.20,0.02,-0.00,-0.19,-29.17,-21.16,47.5648106.00,0.17,0.30,-10.19,0.02,-0.02,-0.11,-29.17,-21.16,47.5648157.00,0.13,0.45,-10.20,0.02,-0.00,-0.01,-29.17,-21.16,47.5648209.00,0.14,0.33,-10.19,0.06,0.00,-0.09,-30.92,-20.45,49.2648261.00,0.11,0.28,-10.11,0.09,-0.03,-0.10,-30.92,-20.45,49.2648499.00,0.08,0.37,-10.20,0.02,-0.00,0.01,-31.10,-19.92,48.4148551.00,0.10,0.34,-10.18,-0.01,0.03,0.03,-30.92,-20.45,48.9248603.00,0.14,0.34,-10.19,0.04,0.00,-0.02,-30.92,-20.45,48.9248655.00,0.12,0.33,-10.19,0.06,0.00,-0.04,-30.92,-20.45,48.9248707.00,0.16,0.23,-10.19,-0.02,-0.03,0.03,-30.22,-19.75,50.6248759.00,0.19,0.12,-10.15,0.01,-0.03,0.15,-30.22,-19.75,50.6248811.00,-0.10,0.69,-10.23,0.05,-0.04,0.02,-31.10,-19.92,50.7948863.00,0.01,0.28,-10.22,0.06,-0.02,-0.19,-31.10,-19.92,50.7948915.00,0.01,0.24,-10.18,0.05,0.07,0.00,-30.40,-19.57,49.4348967.00,0.27,0.45,-10.20,-0.05,-0.06,0.05,-30.40,-19.57,49.4349019.00,0.02,0.51,-10.27,0.04,-0.15,-0.46,-30.40,-19.57,49.4349071.00,-0.05,0.21,-10.22,0.04,0.06,0.03,-31.63,-20.45,49.6049123.00,0.17,0.32,-10.13,-0.03,0.08,0.28,-31.63,-20.45,49.6049175.00,-0.04,0.46,-10.20,-0.03,-0.03,-0.12,-31.80,-21.68,49.7749227.00,0.11,0.15,-10.20,-0.01,-0.01,-0.03,-31.80,-21.68,49.7749279.00,0.06,0.36,-10.19,-0.07,-0.01,0.01,-31.80,-21.68,49.7749331.00,0.07,0.34,-10.18,0.01,0.00,-0.01,-31.63,-20.80,49.2649383.00,0.06,0.32,-10.17,0.01,-0.00,-0.01,-31.63,-20.80,49.2649435.00,0.08,0.31,-10.19,0.01,-0.00,-0.00,-31.10,-20.27,49.4349649.00,0.05,0.36,-10.18,-0.01,-0.00,-0.00,-30.92,-21.16,48.9249701.00,0.07,0.34,-10.22,-0.00,0.00,-0.02,-30.92,-20.80,48.5849753.00,0.08,0.34,-10.21,-0.00,0.00,-0.00,-30.92,-20.80,48.5849805.00,0.08,0.29,-10.20,0.03,0.00,-0.00,-30.05,-21.68,49.0949857.00,0.06,0.30,-10.19,0.01,0.00,-0.00,-30.05,-21.68,49.0949909.00,0.04,0.31,-10.18,-0.00,-0.01,-0.07,-31.45,-19.22,48.4149961.00,0.04,0.33,-10.18,-0.03,0.01,-0.05,-31.45,-19.22,48.4150013.00,0.09,0.22,-10.18,-0.03,-0.00,-0.02,-31.45,-19.22,48.4150065.00,0.06,0.35,-10.26,-0.02,-0.00,0.02,-31.45,-20.98,48.4150117.00,0.06,0.24,-10.11,0.03,0.01,0.02,-31.45,-20.98,48.4150169.00,0.11,0.29,-10.22,0.03,-0.02,0.01,-30.75,-20.63,48.0750221.00,-0.01,0.45,-10.15,0.04,-0.01,0.11,-30.75,-20.63,48.0750273.00,0.10,0.27,-10.15,0.03,0.01,-0.08,-30.75,-20.63,48.0750325.00,0.08,0.23,-10.21,0.04,0.00,-0.01,-31.80,-19.22,47.7350377.00,-0.10,0.06,-9.88,-0.01,0.02,-0.03,-31.80,-19.22,47.7350430.00,0.05,0.37,-10.19,0.00,0.00,-0.10,-30.40,-20.98,48.4150482.00,0.11,0.28,-10.21,0.01,-0.01,-0.07,-30.40,-20.98,48.4150534.00,0.08,0.32,-10.20,-0.00,0.01,0.00,-30.40,-20.98,48.4150585.00,-0.03,0.05,-10.00,0.03,0.01,-0.02,-31.63,-20.10,48.9250803.00,0.03,0.32,-10.17,-0.00,0.01,0.02,-31.28,-20.10,48.5850855.00,0.12,0.25,-10.18,0.06,0.02,-0.02,-31.28,-20.10,48.5850907.00,0.13,0.24,-10.17,0.02,0.00,-0.03,-30.05,-20.63,49.4350959.00,0.11,0.20,-10.17,0.04,-0.00,-0.01,-30.05,-20.63,49.4351012.00,0.08,0.26,-10.19,0.03,0.01,0.04,-30.05,-20.63,49.4351064.00,0.11,0.27,-10.25,0.06,0.02,-0.00,-29.87,-20.80,48.2451116.00,0.22,0.08,-10.10,0.08,0.05,-0.02,-29.87,-20.80,48.2451168.00,0.10,0.20,-10.18,-0.07,-0.03,0.09,-29.69,-20.98,48.7551220.00,0.09,0.26,-10.21,-0.06,-0.03,0.07,-29.69,-20.98,48.7551272.00,0.12,0.22,-10.20,0.01,-0.03,-0.04,-29.69,-20.98,48.7551324.00,0.11,0.22,-10.18,-0.01,-0.03,-0.03,-30.57,-19.39,48.5851376.00,0.11,0.20,-10.19,0.01,-0.00,-0.07,-30.57,-19.39,48.5851428.00,0.09,0.23,-10.21,0.02,-0.02,-0.05,-31.10,-19.22,50.1151480.00,0.10,0.24,-10.23,0.04,0.01,-0.01,-31.10,-19.22,50.1151532.00,0.25,0.23,-10.09,0.09,-0.07,-0.30,-31.10,-19.22,50.1151584.00,-0.05,-0.21,-10.07,0.15,0.01,-0.09,-31.10,-20.27,49.7751637.00,0.18,0.16,-10.17,-0.12,0.05,0.30,-31.10,-20.27,49.7751689.00,0.07,0.43,-10.38,-0.28,-0.09,0.37,-30.05,-18.51,48.0751741.00,0.06,0.36,-10.13,0.21,-0.19,-0.53,-30.05,-18.51,48.0751970.00,0.10,0.25,-10.24,-0.04,-0.01,-0.10,-30.75,-21.33,48.0752022.00,0.08,0.33,-10.17,-0.01,0.00,0.01,-30.75,-21.33,48.0752074.00,0.10,0.26,-10.21,-0.02,-0.00,0.02,-30.40,-19.57,47.7352127.00,0.08,0.33,-10.18,-0.01,0.00,0.01,-30.40,-19.57,47.7352179.00,0.10,0.35,-10.24,-0.02,0.00,0.02,-30.92,-20.80,48.2452231.00,0.07,0.34,-10.21,0.02,-0.00,0.00,-30.92,-20.80,48.2452283.00,0.10,0.32,-10.21,0.02,-0.00,0.00,-30.92,-20.80,48.2452335.00,0.04,0.30,-10.15,0.03,-0.02,-0.00,-30.57,-22.57,49.6052387.00,0.07,0.38,-10.21,-0.02,0.01,0.00,-30.57,-22.57,49.6052439.00,0.08,0.29,-10.20,-0.03,0.01,-0.15,-30.75,-20.27,47.0552491.00,0.09,0.36,-10.12,-0.14,0.01,-0.04,-30.75,-20.27,47.0552543.00,0.20,0.22,-10.19,-0.21,-0.01,0.04,-30.75,-20.27,47.0552595.00,0.15,0.35,-10.00,0.32,0.02,-0.04,-30.92,-21.16,46.2052648.00,0.09,0.40,-10.20,0.01,-0.01,0.01,-30.92,-21.16,46.2052700.00,0.11,0.37,-10.21,0.01,-0.00,-0.00,-29.34,-20.27,46.7152752.00,0.13,0.33,-10.20,0.01,-0.00,-0.02,-29.34,-20.27,46.7152804.00,0.08,0.71,-10.44,-0.01,0.00,-0.00,-30.92,-20.80,48.5852856.00,0.16,0.55,-10.35,-0.08,0.02,-0.00,-30.92,-20.80,48.5852908.00,0.12,0.19,-10.13,-0.04,-0.02,-0.01,-30.92,-20.80,48.5853128.00,0.10,0.46,-10.22,-0.04,-0.02,-0.14,-30.40,-20.63,48.0753181.00,0.13,0.31,-10.18,0.03,0.00,-0.06,-30.40,-20.63,47.7353233.00,0.06,0.41,-10.20,0.07,0.01,0.01,-30.40,-20.63,47.7353286.00,0.10,0.48,-10.21,-0.02,0.00,0.03,-30.40,-20.63,47.7353338.00,0.11,0.39,-10.14,0.06,0.00,-0.00,-31.28,-21.16,48.2453390.00,0.11,0.39,-10.19,-0.00,-0.00,0.00,-31.28,-21.16,48.2453442.00,0.02,0.71,-10.32,0.04,0.01,-0.04,-30.57,-21.16,48.9253494.00,0.08,0.42,-10.19,-0.14,-0.03,0.10,-30.57,-21.16,48.9253547.00,0.05,0.45,-10.23,0.06,0.00,-0.04,-30.57,-21.16,48.9253599.00,0.14,0.36,-10.15,-0.00,-0.00,-0.00,-31.63,-20.45,46.8853651.00,0.11,0.31,-10.16,-0.01,0.00,0.00,-31.63,-20.45,46.8853704.00,0.12,0.44,-10.22,-0.01,0.01,-0.00,-30.22,-21.16,48.5853756.00,0.13,0.25,-10.11,-0.01,0.00,-0.01,-30.22,-21.16,48.5853808.00,0.10,0.31,-10.15,-0.03,-0.01,0.03,-30.92,-20.45,46.5453860.00,0.10,0.41,-10.19,-0.01,0.02,0.02,-30.92,-20.45,46.5453913.00,0.11,0.45,-10.18,-0.04,0.00,0.04,-30.92,-20.45,46.5453965.00,0.09,0.65,-10.28,-0.20,-0.05,0.09,-30.22,-21.16,47.2254017.00,0.07,0.47,-10.24,0.03,-0.02,-0.08,-30.22,-21.16,47.2254069.00,0.07,0.49,-10.21,-0.01,0.00,0.01,-30.40,-21.68,47.7354294.00,0.13,0.40,-10.19,0.02,0.02,0.02,-30.40,-20.27,48.0754347.00,0.09,0.49,-10.23,-0.02,-0.00,-0.00,-30.40,-20.27,48.0754399.00,0.11,0.37,-10.16,0.02,0.01,-0.00,-30.40,-20.27,48.0754452.00,0.12,0.44,-10.22,-0.02,-0.01,0.01,-31.45,-20.63,47.7354504.00,0.11,0.39,-10.19,-0.02,-0.00,0.01,-31.45,-20.63,47.7354556.00,0.13,0.40,-10.19,0.01,0.00,0.00,-31.28,-21.86,48.5854608.00,0.10,0.43,-10.20,-0.01,0.00,-0.00,-31.28,-21.86,48.5854661.00,0.11,0.37,-10.16,-0.01,-0.01,-0.00,-31.28,-21.86,48.5854713.00,0.11,0.47,-10.22,0.01,-0.01,-0.03,-29.69,-20.63,47.3954765.00,0.12,0.38,-10.12,0.00,-0.00,-0.01,-29.69,-20.63,47.3954817.00,0.10,0.46,-10.22,0.02,0.02,0.01,-29.87,-20.80,47.2254870.00,0.12,0.43,-10.20,-0.01,0.00,0.01,-29.87,-20.80,47.2254922.00,0.12,0.45,-10.17,0.00,0.00,0.00,-29.87,-20.80,47.2254974.00,0.11,0.42,-10.21,0.02,0.02,0.01,-30.40,-21.33,48.0755026.00,0.14,0.41,-10.19,0.01,0.02,0.00,-30.40,-21.33,48.0755079.00,0.16,0.37,-10.18,0.05,0.04,-0.02,-30.75,-21.33,48.4155131.00,0.31,0.10,-10.06,-0.13,-0.01,-0.15,-30.75,-21.33,48.4155183.00,0.12,0.53,-10.28,-0.07,0.04,0.27,-30.05,-22.74,48.4155235.00,-0.01,0.55,-10.23,-0.07,-0.04,0.30,-30.05,-22.74,48.4155288.00,0.40,0.29,-10.13,-0.06,-0.08,0.09,-30.05,-22.74,48.4155518.00,0.13,0.35,-10.19,0.01,-0.05,-0.21,-30.92,-20.10,45.5255571.00,0.15,0.26,-10.16,0.01,-0.00,-0.09,-31.45,-20.98,47.3955623.00,0.10,0.39,-10.16,-0.00,0.00,0.01,-31.45,-20.98,47.3955676.00,0.10,0.39,-10.20,-0.00,-0.00,-0.00,-30.05,-21.68,47.7355728.00,0.11,0.40,-10.19,-0.01,0.00,0.01,-30.05,-21.68,47.7355780.00,0.11,0.41,-10.19,-0.01,0.00,-0.00,-30.05,-21.68,47.7355833.00,0.13,0.42,-10.23,0.00,-0.01,-0.00,-31.10,-21.68,49.0955885.00,0.11,0.35,-10.19,0.00,0.00,0.01,-31.10,-21.68,49.0955938.00,0.13,0.41,-10.23,0.00,0.00,0.02,-30.40,-21.33,48.0755990.00,0.12,0.40,-10.19,0.00,-0.01,-0.01,-30.40,-21.33,48.0756043.00,0.12,0.39,-10.19,0.01,-0.00,-0.00,-30.40,-21.33,48.0756095.00,0.14,0.36,-10.20,-0.00,-0.00,-0.01,-30.05,-21.68,47.7356148.00,0.11,0.38,-10.19,0.00,-0.00,-0.01,-30.05,-21.68,47.7356200.00,0.11,0.40,-10.21,-0.00,0.00,0.00,-30.57,-19.75,46.5456253.00,0.11,0.39,-10.18,-0.01,0.00,-0.01,-30.57,-19.75,46.5456305.00,0.11,0.39,-10.19,-0.01,-0.00,-0.01,-31.63,-21.86,46.5456358.00,0.11,0.38,-10.18,-0.00,-0.00,0.00,-31.63,-21.86,46.5456410.00,0.11,0.40,-10.20,-0.00,-0.00,0.00,-31.63,-21.86,46.5456463.00,0.11,0.43,-10.20,-0.00,-0.00,-0.00,-30.75,-20.63,47.0556679.00,0.12,0.36,-10.20,0.00,-0.00,-0.00,-31.45,-19.92,47.0556732.00,0.09,0.32,-10.17,-0.00,-0.00,-0.00,-31.45,-19.92,47.0556784.00,0.09,0.41,-10.17,0.00,-0.00,0.00,-31.45,-19.92,47.0556837.00,0.11,0.37,-10.18,-0.00,-0.00,-0.00,-31.45,-20.63,47.0556889.00,0.11,0.40,-10.20,-0.01,0.01,0.00,-31.45,-20.63,47.0556942.00,0.11,0.39,-10.21,0.01,-0.00,0.01,-31.28,-21.16,48.2456994.00,0.15,0.38,-10.20,0.00,0.00,0.00,-31.28,-21.16,48.2457047.00,0.11,0.41,-10.21,-0.01,0.00,0.02,-31.28,-21.16,48.2457099.00,0.12,0.40,-10.20,-0.00,0.00,-0.01,-31.28,-20.10,46.8857152.00,0.13,0.40,-10.18,-0.00,0.01,0.01,-31.28,-20.10,46.8857204.00,0.13,0.39,-10.20,-0.01,-0.00,0.01,-29.52,-20.10,48.2457257.00,0.07,0.50,-10.24,0.02,0.02,0.02,-29.52,-20.10,48.2457309.00,0.25,0.13,-10.15,0.10,0.10,-0.11,-29.52,-20.10,48.2457362.00,0.22,0.48,-10.20,-0.02,0.06,0.14,-29.87,-20.45,47.2257414.00,0.30,0.21,-10.08,0.04,-0.07,-0.01,-29.87,-20.45,47.2257467.00,0.13,0.54,-10.33,-0.16,-0.09,0.16,-30.75,-21.68,45.6957519.00,0.61,-0.07,-9.87,0.42,0.09,-0.40,-30.75,-21.68,45.6957572.00,0.18,0.35,-10.19,-0.31,-0.07,0.43,-30.57,-19.39,48.9257624.00,0.08,0.60,-10.20,0.05,-0.03,0.03,-30.57,-19.39,48.9257844.00,0.10,0.39,-10.17,0.00,-0.00,-0.01,-30.57,-20.80,47.9057897.00,0.10,0.37,-10.18,-0.01,-0.00,-0.01,-30.57,-20.80,47.9057949.00,0.12,0.40,-10.21,-0.01,-0.00,-0.00,-31.80,-20.63,48.0758002.00,0.11,0.42,-10.18,-0.00,-0.00,-0.01,-31.80,-20.63,48.0758055.00,0.10,0.42,-10.18,-0.00,-0.00,-0.01,-30.57,-19.39,48.5858107.00,0.10,0.38,-10.17,0.00,-0.00,-0.02,-30.57,-19.39,48.5858160.00,0.11,0.39,-10.17,-0.00,-0.00,-0.00,-30.57,-19.39,48.5858213.00,0.10,0.40,-10.17,-0.00,0.00,-0.01,-30.05,-19.57,47.0558265.00,0.11,0.37,-10.18,-0.01,-0.00,-0.00,-30.05,-19.57,47.0558318.00,0.09,0.40,-10.23,-0.00,-0.00,-0.00,-31.10,-22.04,49.0958370.00,0.12,0.40,-10.18,0.00,-0.00,-0.00,-31.10,-22.04,49.0958423.00,0.09,0.39,-10.19,-0.01,0.00,0.01,-31.10,-22.04,49.0958476.00,0.10,0.38,-10.20,0.00,-0.00,-0.00,-31.28,-20.10,49.2658528.00,0.11,0.38,-10.18,0.00,-0.00,-0.00,-31.28,-20.10,49.2658581.00,0.11,0.40,-10.17,-0.00,0.00,0.00,-29.87,-20.10,49.9458634.00,0.10,0.41,-10.19,-0.00,-0.00,0.00,-29.87,-20.10,49.9458686.00,0.11,0.38,-10.21,-0.00,0.00,0.00,-30.75,-19.57,47.0558739.00,0.09,0.37,-10.18,0.00,-0.00,0.00,-30.75,-19.57,47.0558792.00,0.10,0.39,-10.19,-0.01,-0.00,0.00,-30.75,-19.57,47.0559016.00,0.12,0.40,-10.19,-0.01,-0.00,0.00,-31.80,-20.98,47.3959069.00,0.10,0.40,-10.19,-0.00,0.00,0.00,-31.28,-22.21,48.2459122.00,0.10,0.38,-10.21,-0.01,-0.00,0.00,-31.28,-22.21,48.2459174.00,0.09,0.40,-10.19,-0.00,-0.01,-0.00,-30.92,-20.80,47.2259227.00,0.10,0.39,-10.21,0.00,-0.01,-0.01,-30.92,-20.80,47.2259280.00,0.05,0.24,-10.01,0.02,-0.01,-0.01,-30.92,-20.80,47.2259333.00,0.09,0.40,-10.21,-0.02,0.00,0.01,-31.63,-19.75,46.5459385.00,0.10,0.39,-10.18,0.01,0.00,-0.00,-31.63,-19.75,46.5459438.00,0.10,0.35,-10.21,0.00,0.00,-0.00,-29.52,-20.80,46.8859491.00,0.09,0.38,-10.21,0.01,0.01,0.00,-29.52,-20.80,46.8859544.00,0.13,0.34,-10.21,0.01,0.01,-0.01,-29.52,-20.80,46.8859597.00,0.09,0.40,-10.22,-0.00,0.02,0.00,-30.40,-21.33,48.0759649.00,0.11,0.31,-10.16,0.02,0.01,0.00,-30.40,-21.33,48.0759702.00,0.13,0.41,-10.22,-0.02,0.01,0.03,-30.57,-21.16,47.2259755.00,0.14,0.37,-10.19,0.01,0.01,0.01,-30.57,-21.16,47.2259808.00,0.16,0.34,-10.17,0.03,0.02,-0.01,-30.57,-21.16,47.2259861.00,0.18,0.32,-10.18,0.07,0.06,-0.02,-30.57,-21.86,45.8659913.00,0.19,0.31,-10.17,0.08,0.05,-0.01,-30.57,-21.86,45.8659966.00,0.35,-0.05,-9.89,0.05,0.03,-0.12,-30.92,-20.80,45.8660200.00,0.24,0.58,-10.01,0.47,0.09,-0.45,-30.05,-19.57,45.6960253.00,0.14,-0.20,-10.02,0.06,-0.04,-0.00,-30.05,-19.57,45.6960306.00,0.00,0.68,-10.25,-0.21,-0.03,0.40,-30.05,-19.57,45.6960358.00,0.46,0.03,-9.90,-0.05,0.01,-0.13,-30.22,-20.45,48.5860411.00,0.12,0.34,-10.21,0.00,-0.02,-0.21,-30.22,-20.45,48.5860464.00,0.10,0.34,-10.18,-0.01,0.00,-0.00,-31.98,-20.45,47.2260517.00,0.12,0.42,-10.21,-0.01,0.00,0.00,-31.98,-20.45,47.2260570.00,0.11,0.37,-10.18,0.02,-0.01,-0.01,-31.28,-21.86,46.8860623.00,0.11,0.37,-10.17,-0.01,-0.00,-0.00,-31.28,-21.86,46.8860675.00,0.10,0.37,-10.20,-0.00,-0.00,-0.00,-31.45,-21.68,46.3760728.00,0.11,0.37,-10.19,0.00,-0.00,0.00,-31.45,-21.68,46.3760781.00,0.09,0.36,-10.17,-0.00,-0.00,0.00,-31.45,-21.68,46.3760834.00,0.11,0.39,-10.23,-0.01,-0.00,-0.00,-30.40,-19.92,47.7360887.00,0.11,0.39,-10.20,0.01,-0.00,-0.00,-30.40,-19.92,47.7360940.00,0.09,0.35,-10.21,0.00,-0.00,0.00,-30.05,-18.86,47.0560992.00,0.11,0.37,-10.19,-0.00,-0.00,0.00,-30.05,-18.86,47.0561045.00,0.11,0.35,-10.19,0.00,-0.00,-0.00,-30.05,-18.86,47.0561098.00,0.10,0.36,-10.18,0.01,-0.00,0.00,-30.05,-19.57,46.3761151.00,0.10,0.36,-10.17,-0.00,-0.00,0.00,-30.05,-19.57,46.3761394.00,0.10,0.38,-10.19,0.01,-0.01,-0.00,-30.57,-20.80,45.8661447.00,0.08,0.40,-10.22,0.01,-0.01,-0.03,-31.10,-19.92,46.3761500.00,0.08,0.29,-10.18,0.03,-0.00,-0.08,-31.10,-19.92,46.3761553.00,0.10,0.29,-10.19,-0.01,-0.01,-0.08,-31.10,-19.92,46.3761606.00,0.07,0.34,-10.20,0.00,-0.00,-0.06,-31.45,-20.63,47.3961659.00,0.07,0.37,-10.19,0.02,-0.01,-0.12,-31.45,-20.63,47.3961712.00,0.14,0.14,-10.20,0.00,-0.01,-0.03,-30.92,-19.75,46.2061765.00,0.07,0.42,-10.22,-0.04,0.00,0.10,-30.92,-19.75,46.2061817.00,0.08,0.31,-10.18,0.00,-0.00,-0.00,-32.15,-19.92,47.3961870.00,0.08,0.34,-10.22,0.01,-0.01,-0.01,-32.15,-19.92,47.3961923.00,0.08,0.28,-10.20,-0.02,0.00,0.01,-32.15,-19.92,47.3961976.00,0.11,0.36,-10.19,-0.06,0.00,0.05,-29.87,-21.16,46.5462029.00,0.11,0.40,-10.23,0.01,0.00,0.01,-29.87,-21.16,46.5462082.00,0.04,-0.25,-9.91,0.02,-0.00,-0.01,-30.75,-20.27,46.7162135.00,0.11,0.29,-10.21,-0.00,-0.00,0.01,-30.75,-20.27,46.7162188.00,0.09,0.33,-10.18,0.05,0.01,0.00,-30.75,-20.27,46.7162241.00,0.03,0.25,-10.08,-0.01,0.03,0.09,-31.80,-19.92,45.6962294.00,0.11,0.38,-10.25,0.00,0.01,0.04,-31.80,-19.92,45.6962347.00,0.10,0.31,-10.20,0.02,-0.00,-0.03,-32.33,-19.04,44.8462569.00,0.16,0.30,-10.25,0.03,-0.01,-0.02,-29.69,-19.22,45.6962622.00,0.16,0.16,-10.20,0.11,-0.05,-0.21,-29.69,-19.22,45.6962675.00,0.21,0.02,-10.15,0.11,-0.03,-0.12,-29.69,-19.22,45.6962728.00,0.11,0.22,-10.24,-0.03,0.07,0.14,-30.75,-18.86,47.7362781.00,0.27,0.19,-10.15,-0.19,0.08,0.17,-30.75,-18.86,47.7362834.00,0.10,0.46,-10.16,0.11,-0.04,-0.05,-29.17,-20.45,45.1862887.00,-0.11,0.04,-10.21,-0.03,-0.02,0.03,-29.17,-20.45,45.1862940.00,0.19,0.25,-10.17,-0.16,0.00,0.10,-30.40,-19.57,46.3762993.00,-0.00,0.99,-10.64,-0.26,-0.11,0.10,-30.40,-19.57,46.3763045.00,0.18,-0.08,-10.14,-0.04,-0.02,-0.18,-30.40,-19.57,46.3763098.00,0.11,0.29,-10.17,-0.03,-0.00,0.01,-31.45,-20.98,47.0563151.00,0.10,0.41,-10.25,-0.04,0.01,0.04,-31.45,-20.98,47.0563204.00,0.10,0.34,-10.18,0.00,-0.01,-0.00,-31.80,-19.57,47.3963257.00,0.13,0.35,-10.20,-0.00,-0.00,-0.01,-31.80,-19.57,47.3963310.00,0.10,0.36,-10.21,0.01,-0.00,-0.01,-31.80,-19.57,47.3963363.00,0.11,0.33,-10.17,0.00,0.00,-0.02,-31.45,-20.63,45.3563416.00,0.10,0.33,-10.18,-0.01,-0.00,0.00,-31.45,-20.63,45.3563469.00,0.10,0.31,-10.19,0.02,-0.00,-0.00,-32.33,-20.45,45.5263523.00,0.09,0.38,-10.19,0.00,-0.00,-0.01,-32.33,-20.45,45.5263742.00,0.11,0.34,-10.19,-0.00,0.00,-0.01,-31.45,-20.27,48.0763795.00,0.11,0.35,-10.18,-0.00,0.00,-0.01,-31.45,-20.27,48.0763848.00,0.12,0.32,-10.20,-0.00,-0.00,0.00,-31.63,-17.98,46.5463902.00,0.10,0.33,-10.19,0.00,-0.00,-0.02,-31.63,-17.98,46.5463955.00,0.09,0.33,-10.19,-0.00,0.00,0.00,-29.69,-20.98,45.3564008.00,0.11,0.33,-10.19,0.00,-0.00,-0.00,-29.69,-20.98,45.3564061.00,0.11,0.35,-10.21,-0.00,0.00,0.01,-30.75,-19.57,46.0364114.00,0.11,0.34,-10.19,0.00,-0.00,-0.01,-30.75,-19.57,46.0364168.00,0.10,0.35,-10.22,-0.00,-0.00,0.00,-30.75,-19.57,46.0364221.00,0.09,0.33,-10.18,-0.00,-0.00,-0.00,-30.75,-19.92,45.6964274.00,0.10,0.34,-10.20,0.00,-0.00,-0.00,-30.75,-19.92,45.6964327.00,0.11,0.32,-10.21,-0.00,0.00,-0.01,-29.87,-20.80,46.5464380.00,0.11,0.34,-10.20,-0.00,-0.00,0.00,-29.87,-20.80,46.5464433.00,0.09,0.32,-10.18,-0.00,-0.00,0.00,-29.87,-20.80,46.5464486.00,0.12,0.36,-10.18,-0.01,-0.00,-0.00,-30.92,-20.80,45.8664540.00,0.10,0.31,-10.18,0.00,-0.00,0.00,-30.92,-20.80,45.8664593.00,0.11,0.35,-10.19,-0.00,-0.00,0.01,-30.92,-19.39,46.5464646.00,0.11,0.36,-10.21,-0.01,-0.00,0.01,-30.92,-19.39,46.5464699.00,0.09,0.33,-10.20,-0.00,-0.00,0.00,-31.45,-19.57,47.3964752.00,0.10,0.37,-10.20,-0.01,-0.00,0.00,-31.45,-19.57,47.3964983.00,0.08,0.39,-10.22,-0.02,-0.01,0.01,-30.40,-18.86,45.6965037.00,0.09,0.34,-10.18,0.01,-0.00,-0.02,-30.40,-18.86,45.6965090.00,0.10,0.37,-10.21,-0.00,0.00,-0.00,-31.45,-19.57,45.3565143.00,0.10,0.33,-10.20,-0.00,-0.00,-0.00,-31.45,-19.57,45.3565196.00,0.09,0.37,-10.17,-0.00,-0.02,-0.02,-31.45,-19.57,45.3565250.00,0.09,0.38,-10.22,0.00,0.00,0.00,-31.63,-21.16,46.8865303.00,0.08,0.30,-10.18,0.01,-0.01,-0.02,-31.63,-21.16,46.8865356.00,0.07,0.39,-10.22,-0.01,0.00,0.01,-30.75,-19.92,47.0565409.00,0.06,0.31,-10.16,0.03,0.01,-0.01,-30.75,-19.92,47.0565462.00,0.08,0.31,-10.14,0.04,0.02,0.01,-31.63,-20.10,45.5265516.00,0.11,0.29,-10.21,0.04,0.04,0.02,-31.63,-20.10,45.5265569.00,0.12,0.31,-10.20,0.01,0.02,0.00,-31.63,-20.10,45.5265622.00,0.14,0.28,-10.20,-0.01,-0.01,0.00,-30.05,-18.86,44.3365675.00,0.13,0.28,-10.19,0.01,-0.01,0.00,-30.05,-18.86,44.3365728.00,0.13,0.26,-10.20,-0.00,-0.00,0.01,-30.75,-19.22,46.0365782.00,0.09,0.27,-10.25,0.00,0.03,0.03,-30.75,-19.22,46.0365835.00,0.18,0.25,-10.15,0.05,0.04,-0.05,-31.28,-20.45,44.8465888.00,0.32,0.14,-9.90,0.18,-0.00,-0.24,-31.28,-20.45,44.8465941.00,0.14,0.23,-10.25,-0.02,0.10,0.09,-30.92,-19.04,44.5066130.00,0.51,0.06,-10.10,0.30,0.04,-0.27,-31.10,-19.92,43.9966183.00,0.24,0.11,-10.11,-0.00,0.01,0.00,-31.10,-19.92,43.9966236.00,0.28,0.29,-10.15,-0.21,-0.14,0.02,-32.15,-19.22,45.0166289.00,0.00,0.42,-9.95,-0.03,-0.02,-0.05,-32.15,-19.22,45.0166343.00,0.12,0.33,-10.24,-0.06,-0.00,0.01,-31.80,-19.57,44.3366396.00,0.09,0.35,-10.20,-0.02,0.00,0.00,-31.80,-19.57,44.3366449.00,0.12,0.33,-10.28,-0.02,-0.00,-0.00,-31.80,-20.27,46.0366502.00,0.08,0.32,-10.18,-0.01,-0.00,-0.00,-31.80,-20.27,46.0366556.00,0.12,0.36,-10.19,-0.00,0.00,-0.00,-31.80,-20.27,46.0366609.00,0.09,0.35,-10.19,0.02,0.00,-0.00,-31.80,-20.63,45.3566662.00,0.11,0.34,-10.20,-0.01,0.00,0.00,-31.80,-20.63,45.3566715.00,0.10,0.36,-10.20,-0.01,0.00,0.00,-30.92,-20.45,46.5466769.00,0.10,0.32,-10.21,0.01,-0.00,0.00,-30.92,-20.45,46.5466822.00,0.11,0.33,-10.20,0.01,-0.00,-0.00,-30.75,-19.22,45.3566875.00,0.11,0.36,-10.19,-0.01,-0.00,0.00,-30.75,-19.22,45.3566928.00,0.09,0.34,-10.17,0.02,-0.00,-0.00,-30.75,-19.22,45.3566982.00,0.12,0.31,-10.16,0.01,0.00,-0.00,-29.87,-20.10,45.8667035.00,0.09,0.33,-10.19,0.00,0.00,-0.01,-29.87,-20.10,45.8667088.00,0.08,0.40,-10.21,0.03,-0.00,-0.03,-30.57,-17.98,44.8467331.00,0.10,0.32,-10.23,-0.00,-0.00,-0.01,-29.87,-19.39,44.8467384.00,0.11,0.29,-10.20,-0.01,-0.00,0.00,-29.87,-19.39,44.8467438.00,0.10,0.34,-10.17,-0.01,-0.00,0.01,-29.87,-19.39,44.8467491.00,0.05,0.46,-10.23,-0.03,-0.00,0.01,-30.75,-20.27,45.0167544.00,0.14,0.24,-10.17,-0.02,-0.00,0.02,-30.75,-20.27,45.0167598.00,0.06,0.43,-10.22,-0.01,-0.00,0.02,-31.45,-19.22,45.6967651.00,0.15,0.31,-10.20,0.01,-0.00,0.01,-31.45,-19.22,45.6967705.00,0.05,0.40,-10.19,0.01,0.00,-0.00,-31.10,-20.63,44.3367758.00,0.16,0.27,-10.19,0.02,0.00,-0.04,-31.10,-20.63,44.3367811.00,0.04,0.35,-10.17,0.01,-0.00,-0.02,-31.10,-20.63,44.3367865.00,0.16,0.20,-10.17,-0.01,-0.00,-0.03,-32.86,-19.22,45.0167918.00,0.08,0.30,-10.14,0.00,-0.00,-0.01,-32.86,-19.22,45.0167972.00,0.14,0.26,-10.38,-0.09,-0.00,0.01,-30.05,-19.92,46.7168025.00,0.12,0.43,-10.21,-0.00,0.00,0.03,-30.05,-19.92,46.7168078.00,0.11,0.38,-10.20,0.01,0.00,0.00,-30.05,-19.92,46.7168132.00,0.09,0.38,-10.21,0.02,0.00,0.02,-30.92,-19.75,45.1868185.00,0.11,0.43,-10.20,0.03,0.03,-0.08,-30.92,-19.75,45.1868239.00,0.18,0.19,-10.17,0.01,0.01,-0.08,-30.22,-20.45,46.2068463.00,0.24,0.29,-10.17,0.03,-0.00,-0.04,-30.57,-19.39,45.1868516.00,0.07,0.39,-10.17,0.01,-0.01,-0.06,-30.57,-19.39,45.1868570.00,0.14,0.30,-10.14,-0.02,-0.04,-0.02,-30.57,-19.39,45.1868623.00,0.11,0.41,-10.15,-0.04,0.00,0.08,-31.28,-20.10,45.5268677.00,0.10,0.36,-10.19,-0.01,-0.01,0.02,-31.28,-20.10,45.5268730.00,0.11,0.31,-10.14,0.03,-0.04,0.01,-32.15,-19.92,44.6768784.00,0.17,0.20,-10.12,0.09,-0.00,0.05,-32.15,-19.92,44.6768837.00,0.00,0.39,-10.19,0.15,-0.03,0.12,-32.15,-19.57,47.7368890.00,0.09,0.31,-10.24,0.11,-0.03,-0.05,-32.15,-19.57,47.7368944.00,0.03,0.05,-10.12,0.00,-0.06,-0.00,-32.15,-19.22,46.3768998.00,-0.05,0.43,-10.23,-0.15,-0.05,0.10,-32.15,-19.22,46.3769051.00,-0.02,0.28,-10.19,-0.01,-0.02,0.00,-32.15,-19.22,46.3769105.00,-0.00,0.27,-10.23,0.05,0.02,-0.05,-31.10,-20.27,47.0569158.00,0.03,0.10,-10.14,0.03,-0.00,0.03,-31.10,-20.27,47.0569212.00,-0.04,0.35,-10.24,0.02,0.01,-0.02,-32.68,-20.10,48.2469265.00,0.06,0.20,-10.16,-0.07,0.07,-0.05,-32.68,-20.10,48.2469319.00,0.02,0.32,-10.18,-0.03,0.01,0.02,-32.68,-20.10,48.2469372.00,-0.09,0.27,-10.14,-0.04,-0.05,-0.05,-31.63,-19.39,46.8869427.00,-0.03,0.16,-10.11,0.26,-0.03,0.01,-31.63,-19.39,46.8869606.00,0.06,0.35,-10.22,-0.05,0.01,0.06,-30.92,-19.04,44.8469657.00,0.05,0.39,-10.23,0.05,-0.00,0.09,-30.92,-19.04,44.8469708.00,0.04,0.34,-10.20,-0.04,-0.01,-0.00,-31.28,-20.45,47.9069759.00,0.03,0.39,-10.20,-0.04,-0.01,0.00,-31.28,-20.45,47.9069810.00,0.05,0.33,-10.20,0.03,-0.00,-0.00,-31.28,-20.45,47.9069861.00,0.04,0.38,-10.22,-0.01,-0.00,0.01,-31.28,-18.33,46.2069913.00,0.08,0.29,-10.17,-0.01,0.00,0.00,-31.28,-18.33,46.2069964.00,0.05,0.36,-10.22,-0.03,-0.00,-0.00,-31.28,-18.33,46.2070015.00,0.07,0.37,-10.20,-0.06,-0.01,0.02,-30.75,-19.57,46.3770066.00,0.07,0.32,-10.18,0.02,-0.00,0.01,-30.75,-19.57,46.3770117.00,0.03,0.49,-10.23,-0.00,0.00,0.05,-30.40,-20.27,47.0570168.00,0.03,0.32,-10.17,0.02,0.00,0.04,-30.40,-20.27,47.0570219.00,0.04,0.43,-10.23,-0.05,0.00,0.04,-29.52,-21.16,47.2270270.00,0.05,0.37,-10.22,-0.06,-0.02,0.06,-29.52,-21.16,47.2270322.00,0.05,0.40,-10.20,-0.04,-0.01,0.05,-29.52,-21.16,47.2270373.00,0.05,0.37,-10.18,0.07,0.00,0.03,-30.75,-19.57,47.0570424.00,0.03,0.34,-10.19,-0.01,0.00,0.03,-30.75,-19.57,47.0570475.00,0.04,0.34,-10.17,-0.00,-0.01,-0.02,-30.92,-20.80,46.2070695.00,0.23,0.49,-10.40,0.00,0.06,-0.09,-32.51,-19.92,48.4170747.00,0.10,0.35,-10.16,-0.04,0.05,0.02,-31.28,-19.04,47.5670798.00,0.04,0.40,-10.15,-0.02,-0.06,0.02,-31.28,-19.04,47.5670849.00,0.08,0.24,-10.17,0.11,0.01,0.01,-31.28,-20.10,47.5670900.00,0.04,0.30,-10.17,-0.09,-0.01,-0.06,-31.28,-20.10,47.5670952.00,0.03,0.44,-10.21,-0.02,-0.02,0.00,-31.28,-20.10,47.5671003.00,0.05,0.42,-10.22,0.05,0.01,0.07,-30.75,-19.92,48.0771054.00,0.02,0.35,-10.17,-0.03,-0.02,-0.02,-30.75,-19.92,48.0771105.00,0.02,0.37,-10.21,0.01,0.01,0.01,-32.86,-20.63,50.1171156.00,0.03,0.45,-10.21,0.02,0.01,0.03,-32.86,-20.63,50.1171208.00,0.15,0.37,-10.25,0.06,-0.07,-0.01,-30.92,-20.10,48.5871259.00,0.03,0.39,-10.20,-0.10,-0.00,-0.04,-30.92,-20.10,48.5871310.00,0.06,0.35,-10.18,0.02,-0.01,0.03,-30.92,-20.10,48.5871361.00,0.02,0.44,-10.20,-0.02,-0.01,0.06,-31.28,-20.45,49.6071413.00,0.02,0.44,-10.20,0.03,-0.01,0.03,-31.28,-20.45,49.6071464.00,0.03,0.37,-10.17,-0.02,-0.01,-0.06,-31.28,-20.45,49.6071515.00,0.04,0.41,-10.17,-0.02,0.01,-0.01,-31.98,-20.45,49.6071567.00,0.03,0.46,-10.20,0.02,-0.01,0.04,-31.98,-20.45,49.6071618.00,0.06,0.40,-10.20,0.01,-0.01,-0.00,-30.57,-20.80,49.6071850.00,0.04,0.39,-10.17,0.01,0.00,-0.01,-31.63,-20.10,48.5871902.00,0.04,0.42,-10.19,-0.01,-0.01,0.01,-31.63,-20.10,48.5871953.00,0.01,0.35,-10.14,0.00,-0.02,-0.04,-31.63,-20.10,48.5872005.00,0.06,0.44,-10.25,0.02,0.01,0.04,-32.68,-18.33,48.5872056.00,0.05,0.36,-10.18,-0.01,-0.02,-0.03,-32.68,-18.33,48.5872107.00,0.06,0.38,-10.18,-0.04,-0.01,-0.05,-31.28,-20.45,48.5872158.00,0.02,0.51,-10.25,0.02,-0.00,0.02,-31.28,-20.45,48.5872210.00,0.04,0.25,-10.14,0.00,-0.02,-0.10,-30.40,-21.68,50.1172261.00,0.08,0.44,-10.29,-0.02,0.05,0.04,-30.40,-21.68,50.1172313.00,0.03,0.34,-10.15,-0.08,-0.03,-0.07,-30.40,-21.68,50.1172364.00,0.13,0.49,-10.48,0.04,-0.00,0.06,-30.92,-21.51,47.9072415.00,0.02,0.30,-10.18,-0.02,-0.03,-0.02,-30.92,-21.51,47.9072466.00,0.01,0.49,-10.22,-0.07,-0.02,-0.12,-31.98,-22.57,48.2472518.00,-0.02,0.51,-10.23,0.26,0.04,0.33,-31.98,-22.57,48.2472569.00,0.03,0.19,-10.14,-0.10,-0.01,-0.16,-31.98,-22.57,48.2472621.00,0.05,0.42,-10.23,-0.12,0.06,0.02,-32.15,-19.57,48.0772672.00,0.04,0.48,-10.25,-0.01,-0.01,-0.01,-32.15,-19.57,48.0772723.00,0.05,0.46,-10.20,0.04,-0.01,0.00,-31.10,-19.92,48.0772775.00,0.05,0.37,-10.17,0.01,0.01,-0.02,-31.10,-19.92,48.0772991.00,0.06,0.43,-10.21,-0.01,-0.01,0.02,-30.92,-20.80,48.2473043.00,0.02,0.42,-10.18,-0.00,-0.01,0.01,-30.92,-20.80,48.2473094.00,0.07,0.36,-10.20,0.03,-0.00,-0.01,-31.45,-20.63,49.0973146.00,0.03,0.40,-10.20,-0.02,0.00,0.01,-31.45,-20.63,49.0973197.00,0.06,0.39,-10.19,0.01,0.00,0.00,-31.45,-20.63,49.0973249.00,0.06,0.53,-10.20,-0.03,0.01,0.03,-32.33,-20.45,48.9273300.00,0.06,0.46,-10.21,0.02,0.00,0.01,-32.33,-20.45,48.9273352.00,0.02,0.41,-10.19,0.02,-0.01,-0.00,-31.80,-20.98,49.0973403.00,0.04,0.37,-10.19,0.06,-0.02,-0.02,-31.80,-20.98,49.0973455.00,0.06,0.27,-10.17,0.12,0.03,0.09,-31.80,-20.98,49.0973506.00,0.07,0.28,-10.17,-0.03,-0.00,-0.00,-32.15,-19.92,48.7573558.00,0.06,0.42,-10.23,-0.10,0.07,0.02,-32.15,-19.92,48.7573609.00,0.14,0.23,-10.05,-0.04,-0.04,-0.10,-30.40,-20.98,47.0573661.00,0.01,0.45,-10.26,0.20,-0.04,0.26,-30.40,-20.98,47.0573713.00,0.13,0.30,-10.29,-0.09,-0.02,-0.13,-31.63,-20.80,49.6073764.00,0.25,0.18,-10.18,-0.27,-0.08,-0.27,-31.63,-20.80,49.6073816.00,-0.12,0.49,-10.17,0.33,0.06,0.32,-31.63,-20.80,49.6073867.00,-0.02,0.06,-10.01,-0.08,-0.04,-0.20,-30.57,-21.16,49.2673919.00,0.15,0.64,-10.29,-0.21,0.02,0.04,-30.57,-21.16,49.2674143.00,0.07,0.45,-10.22,0.09,0.01,0.04,-31.63,-20.45,48.9274194.00,0.07,0.42,-10.20,-0.02,-0.00,-0.00,-31.63,-20.45,48.9274246.00,0.04,0.46,-10.20,-0.02,0.01,0.01,-31.45,-20.27,48.4174298.00,0.09,0.43,-10.18,0.02,0.02,-0.01,-31.45,-20.27,48.4174349.00,0.08,0.44,-10.22,0.02,0.00,0.00,-31.28,-19.75,46.8874401.00,0.11,0.38,-10.20,0.01,0.00,-0.01,-31.28,-19.75,46.8874452.00,0.08,0.45,-10.24,0.02,0.01,0.00,-31.28,-19.75,46.8874504.00,0.08,0.40,-10.22,0.03,-0.00,-0.02,-30.57,-20.10,47.2274556.00,0.08,0.39,-10.21,-0.02,-0.00,-0.00,-30.57,-20.10,47.2274607.00,0.08,0.35,-10.19,0.01,0.00,-0.02,-31.45,-21.33,47.7374659.00,0.07,0.39,-10.22,-0.04,-0.01,0.01,-31.45,-21.33,47.7374711.00,0.10,0.34,-10.19,0.05,-0.01,-0.01,-31.28,-21.16,47.5674762.00,0.08,0.36,-10.18,-0.00,-0.01,-0.01,-31.28,-21.16,47.5674814.00,0.09,0.37,-10.21,-0.00,-0.01,-0.00,-31.28,-21.16,47.5674865.00,0.08,0.39,-10.22,-0.01,-0.01,-0.01,-30.75,-21.68,47.7374917.00,0.08,0.42,-10.22,-0.02,-0.01,0.01,-30.75,-21.68,47.7374969.00,0.07,0.39,-10.23,0.02,-0.00,-0.01,-30.75,-21.68,47.7375020.00,0.08,0.37,-10.19,-0.00,0.01,0.00,-30.22,-19.39,48.5875072.00,0.08,0.42,-10.09,0.05,-0.02,-0.07,-30.22,-19.39,48.5875124.00,-0.02,0.03,-10.02,-0.02,-0.06,0.11,-31.10,-20.63,49.4375348.00,-0.14,0.29,-10.02,0.44,-0.03,0.49,-29.34,-20.98,48.7575399.00,0.00,0.29,-10.10,-0.11,-0.02,-0.29,-32.68,-19.39,51.3075451.00,0.30,0.39,-10.13,0.00,0.03,-0.01,-32.68,-19.39,51.3075503.00,0.07,0.41,-10.22,-0.13,-0.05,-0.04,-31.63,-20.45,48.2475554.00,0.05,0.50,-10.24,0.13,-0.01,0.07,-31.63,-20.45,48.2475606.00,0.06,0.35,-10.19,0.04,-0.01,-0.04,-30.92,-19.75,50.2875658.00,0.06,0.39,-10.19,-0.01,0.00,0.01,-30.92,-19.75,50.2875709.00,0.07,0.40,-10.22,0.03,0.02,0.01,-30.92,-19.75,50.2875761.00,0.05,0.35,-10.18,-0.04,0.00,-0.00,-29.52,-21.16,50.6275813.00,0.06,0.35,-10.17,0.03,-0.01,-0.02,-29.52,-21.16,50.6275864.00,0.06,0.36,-10.20,-0.04,0.00,0.00,-30.75,-20.27,49.4375916.00,0.06,0.42,-10.21,-0.02,-0.02,-0.01,-30.75,-20.27,49.4375968.00,0.05,0.34,-10.17,-0.01,-0.00,-0.00,-30.75,-20.27,49.4376019.00,0.06,0.43,-10.18,-0.01,-0.02,0.02,-30.75,-21.68,49.4376071.00,0.10,0.48,-10.25,-0.04,0.04,0.05,-30.75,-21.68,49.4376123.00,0.08,0.44,-10.24,-0.01,0.01,0.01,-30.40,-20.63,48.4176174.00,0.06,0.40,-10.20,0.03,-0.02,0.01,-30.40,-20.63,48.4176226.00,0.08,0.35,-10.19,0.01,-0.03,0.11,-31.80,-20.63,50.7976278.00,0.02,0.55,-10.31,0.07,0.02,0.01,-31.80,-20.63,50.7976500.00,0.04,0.30,-10.18,0.01,0.01,0.06,-31.28,-20.80,50.6276552.00,0.08,0.29,-10.11,-0.14,-0.01,-0.16,-31.28,-20.80,50.6276604.00,0.05,0.51,-10.27,0.10,-0.01,0.13,-31.80,-19.92,50.4576656.00,0.06,0.37,-10.20,-0.03,-0.03,-0.06,-31.80,-19.92,50.4576707.00,0.05,0.40,-10.20,-0.11,-0.04,-0.20,-31.80,-19.92,50.4576759.00,0.04,0.43,-10.19,0.20,0.02,0.16,-31.10,-20.63,49.7776811.00,0.03,0.30,-10.16,-0.07,-0.02,-0.07,-31.10,-20.63,49.7776863.00,-0.03,0.34,-10.16,-0.08,0.03,0.01,-30.92,-20.10,49.9476915.00,0.07,0.48,-10.20,0.03,-0.01,0.02,-30.92,-20.10,49.9476966.00,0.03,0.40,-10.18,-0.08,-0.03,-0.07,-30.92,-20.10,49.9477018.00,0.05,0.40,-10.17,0.08,0.02,0.11,-30.92,-20.80,47.5677070.00,0.03,0.38,-10.18,-0.02,-0.00,0.00,-30.92,-20.80,47.5677122.00,0.04,0.51,-10.22,-0.04,0.01,0.04,-30.22,-21.51,49.2677173.00,0.02,0.35,-10.18,0.03,-0.02,-0.01,-30.22,-21.51,49.2677225.00,0.06,0.47,-10.21,0.00,0.01,0.08,-30.22,-21.51,49.2677277.00,0.03,0.41,-10.19,0.01,-0.00,-0.00,-32.33,-20.45,50.2877329.00,0.00,0.39,-10.18,-0.00,-0.01,0.00,-32.33,-20.45,50.2877381.00,0.04,0.38,-10.18,0.05,-0.00,0.00,-30.57,-19.39,49.2677432.00,0.05,0.34,-10.20,0.08,0.02,0.01,-30.57,-19.39,49.2677654.00,0.03,0.43,-10.18,0.07,-0.03,0.15,-31.45,-21.68,48.7577706.00,0.04,0.36,-10.19,-0.03,-0.02,0.00,-31.45,-21.68,48.7577757.00,0.03,0.40,-10.21,-0.08,-0.01,-0.05,-30.40,-21.33,50.4577809.00,0.05,0.42,-10.22,0.01,0.04,0.01,-30.40,-21.33,50.4577861.00,0.04,0.40,-10.20,-0.07,-0.01,-0.12,-32.15,-22.04,47.7377913.00,0.07,0.43,-10.19,0.11,0.00,0.02,-32.15,-22.04,47.7377965.00,0.06,0.42,-10.20,0.07,0.01,-0.01,-32.15,-22.04,47.7378017.00,0.07,0.26,-10.16,0.00,0.00,-0.06,-29.34,-21.33,48.4178069.00,0.08,0.39,-10.20,-0.03,0.02,-0.03,-29.34,-21.33,48.4178121.00,0.10,0.17,-10.14,-0.00,0.01,-0.02,-30.22,-20.10,47.2278173.00,0.10,0.28,-10.18,-0.02,0.00,-0.06,-30.22,-20.10,47.2278224.00,0.09,0.40,-10.19,-0.04,0.00,0.01,-30.22,-20.10,47.2278276.00,0.10,0.37,-10.19,0.00,-0.00,0.00,-30.57,-21.51,48.2478328.00,0.08,0.41,-10.20,0.01,-0.00,0.03,-30.57,-21.51,48.2478380.00,0.07,0.30,-10.19,0.03,-0.01,0.01,-30.22,-20.80,48.5878432.00,0.07,0.45,-10.22,-0.01,0.00,0.02,-30.22,-20.80,48.5878484.00,0.07,0.35,-10.21,0.00,-0.00,-0.00,-30.40,-20.98,47.0578536.00,0.07,0.44,-10.22,0.01,0.00,0.01,-30.40,-20.98,47.0578588.00,0.07,0.31,-10.17,0.01,-0.01,0.01,-30.40,-20.98,47.0578815.00,0.11,0.39,-10.20,0.00,0.01,0.04,-31.45,-19.92,48.0778867.00,0.10,0.37,-10.19,0.06,-0.03,0.07,-30.57,-20.10,49.6078919.00,0.07,0.34,-10.20,0.03,-0.02,0.01,-30.57,-20.10,49.6078971.00,0.03,0.35,-10.20,-0.04,-0.01,0.03,-30.57,-20.10,49.6079023.00,0.06,0.34,-10.19,0.03,0.00,0.01,-31.28,-20.80,50.2879075.00,0.09,0.38,-10.20,-0.03,0.06,-0.09,-31.28,-20.80,50.2879127.00,0.13,0.30,-10.17,-0.08,0.03,-0.07,-31.63,-21.51,48.5879179.00,0.07,0.44,-10.19,0.04,-0.06,0.10,-31.63,-21.51,48.5879231.00,0.01,0.40,-10.12,0.00,-0.04,0.04,-31.63,-21.51,48.5879283.00,-0.00,0.46,-10.21,0.13,0.00,0.10,-30.92,-19.39,49.6079335.00,-0.01,0.25,-10.10,-0.09,0.01,-0.12,-30.92,-19.39,49.6079387.00,0.07,0.40,-10.19,-0.05,0.03,-0.02,-31.10,-20.98,48.7579439.00,0.04,0.37,-10.17,-0.06,-0.00,-0.02,-31.10,-20.98,48.7579491.00,0.05,0.48,-10.26,0.01,0.01,0.04,-31.10,-22.04,50.4579543.00,0.06,0.39,-10.18,0.01,-0.00,-0.01,-31.10,-22.04,50.4579595.00,0.04,0.45,-10.21,-0.02,0.01,0.01,-31.98,-21.16,48.2479647.00,0.06,0.42,-10.18,0.01,0.01,-0.00,-31.98,-21.16,48.2479699.00,0.08,0.40,-10.20,0.01,-0.00,-0.00,-31.98,-21.16,48.2479751.00,0.07,0.37,-10.20,0.00,-0.00,0.01,-31.10,-19.57,49.0979973.00,0.09,0.31,-10.26,-0.10,0.02,-0.13,-30.57,-21.16,50.2880025.00,0.29,0.26,-10.10,-0.16,-0.09,-0.16,-30.75,-21.68,49.4380077.00,-0.16,0.63,-10.16,0.33,0.04,0.48,-30.75,-21.68,49.4380129.00,0.03,0.44,-10.19,-0.04,0.00,-0.12,-31.10,-21.33,48.4180181.00,0.15,0.48,-10.37,-0.05,0.03,0.02,-31.10,-21.33,48.4180233.00,0.03,0.42,-10.20,0.08,0.01,0.03,-31.10,-21.33,48.4180285.00,-0.05,0.53,-10.10,-0.12,0.06,-0.01,-29.69,-20.98,49.7780337.00,0.03,0.45,-10.19,-0.07,0.00,-0.01,-29.69,-20.98,49.7780389.00,0.04,0.55,-10.23,0.10,-0.00,0.05,-30.92,-21.16,47.9080441.00,0.07,0.42,-10.19,0.02,0.01,-0.01,-30.92,-21.16,47.9080493.00,0.07,0.44,-10.20,-0.01,0.00,-0.01,-30.22,-22.57,49.2680545.00,0.05,0.42,-10.20,0.03,-0.00,-0.01,-30.22,-22.57,49.2680597.00,0.11,0.28,-10.16,0.03,-0.00,-0.03,-30.22,-22.57,49.2680649.00,0.06,0.41,-10.18,-0.02,-0.03,-0.01,-30.22,-21.51,49.2680701.00,0.05,0.35,-10.20,0.08,-0.02,0.05,-30.22,-21.51,49.2680754.00,0.05,0.35,-10.19,0.02,-0.01,0.08,-30.75,-21.33,50.7980806.00,-0.01,0.49,-10.19,-0.09,0.01,0.02,-30.75,-21.33,50.7980858.00,0.01,0.48,-10.21,-0.10,-0.05,-0.05,-30.40,-20.63,49.4380910.00,-0.02,0.47,-10.25,0.03,0.00,-0.04,-30.40,-20.63,49.4381137.00,0.14,0.74,-10.39,-0.05,-0.02,0.00,-32.68,-22.57,50.9681189.00,0.03,0.29,-10.12,-0.25,0.01,-0.35,-32.68,-22.57,50.9681242.00,-0.07,0.72,-10.17,-0.27,-0.04,0.03,-31.80,-21.68,48.0781294.00,0.05,0.49,-10.21,0.05,0.01,-0.02,-31.80,-21.68,48.0781346.00,0.06,0.56,-10.26,0.11,0.01,-0.04,-31.80,-21.68,48.0781398.00,0.13,0.27,-10.05,0.15,0.03,-0.15,-31.45,-23.45,49.4381450.00,0.02,0.65,-10.30,-0.06,-0.03,-0.04,-31.45,-23.45,49.4381503.00,0.13,0.23,-10.14,0.08,0.04,-0.06,-31.63,-20.80,48.9281555.00,0.07,0.35,-10.20,-0.02,-0.00,-0.03,-31.63,-20.80,48.9281607.00,0.15,0.24,-10.13,0.01,0.05,0.06,-31.63,-20.80,48.9281659.00,0.08,0.42,-10.20,0.19,-0.03,-0.01,-30.40,-21.33,48.4181711.00,0.06,0.17,-10.17,0.18,-0.07,0.02,-30.40,-21.33,48.4181763.00,0.06,0.70,-10.25,-0.21,0.11,-0.13,-30.92,-19.75,48.9281816.00,0.10,0.36,-10.18,-0.04,-0.00,-0.01,-30.92,-19.75,48.9281868.00,0.08,0.35,-10.23,-0.04,-0.00,0.07,-30.40,-20.63,48.0781920.00,0.04,0.61,-10.21,-0.09,0.01,0.22,-30.40,-20.63,48.0781972.00,0.08,0.30,-10.10,-0.01,-0.06,0.03,-30.40,-20.63,48.0782024.00,0.01,0.61,-10.20,0.04,0.02,0.32,-30.75,-20.27,47.7382077.00,0.15,0.29,-10.21,-0.07,0.05,-0.28,-30.75,-20.27,47.7382304.00,0.14,0.28,-10.15,-0.26,0.09,-0.10,-31.63,-20.10,49.2682356.00,0.12,0.37,-10.17,0.07,-0.02,-0.11,-29.87,-21.51,47.2282409.00,0.11,0.22,-10.15,0.03,-0.02,-0.12,-29.87,-21.51,47.2282461.00,0.08,0.50,-10.20,0.03,0.02,0.09,-29.87,-21.51,47.2282513.00,0.11,0.40,-10.20,-0.00,-0.00,-0.02,-30.75,-21.33,47.0582565.00,0.11,0.39,-10.20,0.01,-0.01,-0.04,-30.75,-21.33,47.0582617.00,0.10,0.42,-10.25,0.00,0.00,0.01,-30.75,-20.27,46.7182670.00,0.09,0.32,-10.17,0.05,-0.00,-0.02,-30.75,-20.27,46.7182722.00,0.12,0.40,-10.19,-0.01,0.01,0.00,-30.75,-20.27,46.7182774.00,0.12,0.33,-10.18,0.03,0.01,-0.02,-30.40,-21.33,46.3782826.00,0.13,0.37,-10.19,-0.03,0.00,0.02,-30.40,-21.33,46.3782879.00,0.10,0.37,-10.21,-0.03,-0.01,0.02,-31.63,-20.80,46.5482931.00,0.11,0.46,-10.20,-0.03,-0.00,0.01,-31.63,-20.80,46.5482983.00,0.09,0.46,-10.18,-0.03,-0.00,0.04,-30.75,-21.33,47.3983035.00,0.10,0.44,-10.19,0.00,-0.00,-0.01,-30.75,-21.33,47.3983087.00,0.12,0.51,-10.23,-0.02,-0.01,0.00,-30.75,-21.33,47.3983140.00,0.13,0.35,-10.19,0.05,0.01,-0.02,-30.92,-21.16,46.5483192.00,0.10,0.40,-10.20,0.01,0.00,-0.01,-30.92,-21.16,46.5483244.00,0.10,0.44,-10.24,-0.04,-0.00,0.01,-31.45,-20.98,46.0383297.00,0.11,0.35,-10.27,-0.02,0.01,0.02,-31.45,-20.98,46.0383523.00,0.07,0.48,-10.25,-0.05,-0.12,0.03,-29.34,-22.04,48.0783575.00,0.09,0.32,-10.16,0.14,-0.07,0.08,-29.34,-22.04,48.0783628.00,0.02,0.49,-10.20,-0.02,-0.01,-0.01,-31.98,-21.51,49.9483680.00,0.02,0.46,-10.20,0.01,0.02,0.02,-31.98,-21.51,49.9483732.00,0.04,0.48,-10.19,0.04,0.01,-0.03,-31.98,-21.51,49.9483784.00,0.10,0.31,-10.19,0.02,-0.01,-0.06,-31.28,-21.16,47.9083837.00,0.02,0.38,-10.18,0.02,-0.04,0.01,-31.28,-21.16,47.9083889.00,0.04,0.44,-10.20,0.05,0.06,0.17,-29.34,-20.98,50.4583941.00,0.00,0.38,-10.16,-0.03,-0.01,-0.09,-29.34,-20.98,50.4583994.00,0.13,0.37,-10.24,-0.01,0.04,-0.06,-29.34,-20.98,50.4584046.00,0.09,0.18,-10.22,-0.05,-0.11,-0.23,-31.28,-21.86,47.9084098.00,0.03,0.48,-10.21,0.13,0.08,0.28,-31.28,-21.86,47.9084151.00,-0.00,0.41,-10.19,-0.00,0.05,0.01,-31.28,-21.16,48.9284203.00,0.20,0.51,-10.23,-0.11,0.09,0.01,-31.28,-21.16,48.9284255.00,0.27,0.28,-10.08,-0.01,-0.12,-0.32,-30.57,-20.80,46.5484308.00,-0.02,0.71,-10.41,0.38,0.06,0.71,-30.57,-20.80,46.54