time,ax,ay,az,gx,gy,gz,mx,my,mz87.00,0.21,0.11,-10.23,0.00,0.00,0.00,-28.82,-20.10,43.14138.00,0.20,0.23,-10.24,-0.00,0.00,0.00,-28.82,-20.10,43.14190.00,0.22,0.07,-10.17,-0.00,0.00,0.00,-28.82,-20.10,43.14241.00,0.20,0.10,-10.22,0.00,0.00,0.00,-26.88,-20.63,44.67292.00,0.22,0.11,-10.20,-0.00,0.00,0.00,-26.88,-20.63,44.67343.00,0.18,0.10,-10.20,-0.00,0.00,0.00,-26.88,-20.63,44.67395.00,0.21,0.10,-10.19,-0.00,0.00,0.00,-27.59,-20.63,44.67446.00,0.20,0.11,-10.19,-0.00,0.00,0.00,-27.59,-20.63,44.67497.00,0.21,0.11,-10.21,-0.00,0.00,0.00,-27.24,-21.33,44.33549.00,0.19,0.11,-10.21,-0.00,0.00,0.00,-27.24,-21.33,44.33600.00,0.20,0.10,-10.23,-0.00,0.00,0.00,-27.59,-21.33,45.01651.00,0.20,0.10,-10.20,-0.00,0.00,0.00,-27.59,-21.33,45.01703.00,0.21,0.11,-10.18,-0.00,0.00,0.00,-27.59,-21.33,45.01754.00,0.20,0.12,-10.22,-0.00,0.00,0.00,-27.24,-23.45,43.99806.00,0.23,0.09,-10.20,-0.00,0.00,0.00,-27.24,-23.45,43.99857.00,0.21,0.10,-10.22,-0.00,0.00,0.00,-28.11,-21.86,45.52908.00,0.20,0.10,-10.20,-0.00,0.00,0.00,-28.11,-21.86,45.52959.00,0.20,0.12,-10.22,-0.00,0.00,0.00,-28.11,-21.86,45.521011.00,0.21,0.10,-10.23,-0.00,0.00,0.00,-29.34,-21.33,44.671062.00,0.21,0.10,-10.22,-0.00,0.00,0.00,-29.34,-21.33,44.671113.00,0.20,0.12,-10.23,0.00,0.00,0.00,-27.41,-20.80,43.481165.00,0.22,0.09,-10.19,0.00,0.00,0.00,-27.41,-20.80,43.481216.00,0.21,0.12,-10.18,-0.00,0.00,0.00,-27.41,-20.80,43.481267.00,0.22,0.09,-10.19,-0.00,0.00,0.00,-27.94,-21.68,47.051319.00,0.22,0.11,-10.21,-0.00,0.00,0.00,-27.94,-21.68,47.051370.00,0.22,0.11,-10.20,-0.00,0.00,0.00,-28.64,-22.04,44.331422.00,0.22,0.11,-10.19,-0.00,0.00,0.00,-28.64,-22.04,44.331473.00,0.19,0.10,-10.22,-0.00,0.00,0.00,-27.41,-20.80,43.821524.00,0.22,0.11,-10.20,-0.00,0.00,0.00,-27.41,-20.80,43.821576.00,0.33,-0.04,-10.24,-0.01,-0.01,0.00,-27.41,-20.80,43.821627.00,0.91,-0.32,-12.18,0.24,-0.22,0.37,-27.76,-22.21,44.501679.00,-0.59,0.11,-9.28,0.04,-0.02,1.11,-27.76,-22.21,44.501730.00,0.70,-0.43,-10.76,-0.06,0.04,1.35,-27.06,-21.86,44.841781.00,0.09,-0.14,-9.93,-0.05,0.00,2.07,-27.06,-21.86,44.841833.00,0.32,0.38,-10.26,-0.23,0.26,1.22,-27.06,-21.86,44.841884.00,0.55,0.38,-10.30,-0.04,0.38,1.08,-24.60,-23.98,45.181935.00,0.58,0.18,-10.22,-0.13,0.22,1.11,-24.60,-23.98,45.181987.00,0.84,0.03,-10.13,0.16,0.39,1.29,-21.09,-24.33,44.162038.00,0.77,-0.27,-10.06,-0.05,0.27,1.35,-21.09,-24.33,44.162090.00,1.39,-0.04,-9.81,-0.42,-0.01,0.85,-19.86,-24.15,43.992141.00,0.51,1.13,-10.38,-1.02,-0.20,0.54,-19.86,-24.15,43.992192.00,0.03,0.58,-9.72,0.06,-0.21,0.55,-19.86,-24.15,43.992244.00,0.37,0.92,-10.07,0.14,0.02,0.26,-16.17,-27.15,43.822295.00,0.61,1.20,-14.46,0.80,0.14,0.36,-16.17,-27.15,43.822347.00,0.17,-0.23,-8.83,1.37,-0.78,-0.04,-18.10,-20.98,43.992398.00,0.18,0.04,-11.69,1.75,-0.64,-0.12,-18.10,-20.98,43.992449.00,0.37,-1.79,-10.12,1.82,-1.63,0.28,-18.10,-20.98,43.992501.00,-0.83,-2.95,-10.40,0.97,-1.45,0.28,-23.37,-11.46,46.372552.00,-0.63,-1.79,-6.97,1.86,-1.73,0.73,-23.37,-11.46,46.372604.00,-2.21,-3.18,-8.69,1.88,-0.67,-0.05,-30.22,-3.88,44.842655.00,-2.36,-4.77,-6.56,1.36,-1.57,0.19,-30.22,-3.88,44.842706.00,-3.46,-5.00,-7.52,0.62,-0.67,0.47,-30.22,-3.88,44.842758.00,-3.71,-4.00,-7.27,0.41,-0.78,0.05,-35.67,1.59,41.952809.00,-3.44,-6.48,-6.15,0.34,-0.79,-0.34,-35.67,1.59,41.952861.00,-4.04,-6.94,-6.01,-0.42,-0.70,0.24,-40.24,2.64,39.922912.00,-5.76,-1.55,-6.65,-0.62,-0.10,0.44,-40.24,2.64,39.922964.00,-4.08,-4.38,-8.06,-0.20,0.29,-0.96,-40.24,2.64,39.923015.00,-4.88,-9.52,-8.34,0.65,-0.86,-0.59,-39.18,0.18,39.923066.00,-7.34,-6.97,-11.14,-0.28,-1.44,0.20,-39.18,0.18,39.923118.00,-7.46,-11.02,-17.13,0.48,-1.88,0.57,-39.18,0.18,39.923169.00,-5.78,-12.48,-8.66,1.69,-3.55,2.32,-39.18,0.18,39.923221.00,-3.55,-7.42,-4.98,1.27,-3.64,3.52,-39.18,0.18,39.923272.00,-1.80,-1.81,0.53,-0.17,-3.50,3.65,-59.39,-7.40,20.723324.00,-1.13,2.44,5.19,-0.73,-3.25,2.95,-59.39,-7.40,20.723375.00,0.06,7.00,12.33,-0.19,-1.24,1.07,-64.13,-26.62,4.933426.00,-0.11,6.68,9.81,-0.06,1.63,-0.33,-64.13,-26.62,4.933478.00,1.96,5.30,5.12,0.62,3.44,-3.05,-63.43,-22.74,11.043529.00,2.39,-6.60,-2.86,0.56,4.37,-4.18,-63.43,-22.74,11.043581.00,-2.54,-6.48,-12.77,-0.37,4.21,-3.02,-63.43,-22.74,11.043633.00,-7.26,-27.68,-17.82,1.46,2.25,-3.43,-50.78,0.18,31.763684.00,-9.73,-27.44,-23.74,0.94,0.90,-0.13,-50.78,0.18,31.763736.00,-7.43,-7.50,-8.98,-0.97,-3.01,3.64,-48.32,7.23,31.763787.00,-6.81,-1.94,-3.01,-0.65,-2.62,2.58,-48.32,7.23,31.763839.00,-5.94,-1.44,-3.91,-0.21,-2.03,1.72,-48.32,7.23,31.763891.00,-4.12,-0.48,1.74,-0.46,-2.79,1.01,-58.86,-8.99,20.553942.00,-4.94,-1.26,3.94,0.03,-1.93,0.48,-58.86,-8.99,20.553994.00,-6.47,-0.87,2.40,-0.10,-0.37,0.51,-64.49,-14.63,9.344045.00,-8.06,-0.06,1.99,-0.35,-0.04,0.26,-64.49,-14.63,9.344097.00,-7.78,-1.14,1.16,0.37,0.11,-0.79,-64.49,-14.63,9.344148.00,-8.65,-4.50,1.37,0.53,0.96,-0.83,-64.31,-14.46,10.194200.00,-8.74,-3.15,-2.12,-0.29,1.18,-0.30,-64.31,-14.46,10.194252.00,-9.25,-3.66,-1.91,0.13,0.59,-0.73,-62.38,-11.11,14.104303.00,-8.50,-4.00,-1.76,0.30,0.48,-0.87,-62.38,-11.11,14.104355.00,-8.28,-4.68,-2.07,0.61,0.45,-1.15,-61.50,-3.53,16.994406.00,-7.63,-5.98,-3.25,-0.29,0.48,-1.25,-61.50,-3.53,16.994458.00,-7.07,-5.11,-4.16,-0.99,-0.15,-0.45,-61.50,-3.53,16.994509.00,-8.72,-4.40,-3.68,0.48,-0.58,-0.94,-59.04,-0.71,19.024561.00,-6.85,-6.33,-4.01,1.47,-0.86,-1.35,-59.04,-0.71,19.024613.00,-6.00,-7.81,-1.86,2.88,-1.90,-0.66,-58.51,9.34,8.664664.00,-6.59,-7.48,-1.23,3.96,-2.81,-0.01,-58.51,9.34,8.664716.00,-5.72,-5.79,4.00,4.35,-3.13,2.60,-58.51,9.34,8.664767.00,-6.15,-1.80,6.34,4.35,-2.72,4.21,-58.69,0.71,-16.654819.00,-7.11,4.94,9.69,3.27,-0.63,4.02,-58.69,0.71,-16.654870.00,-5.76,7.39,6.23,4.35,0.68,1.32,-55.17,-34.91,-21.064922.00,-4.35,5.56,4.23,3.71,-0.10,0.12,-55.17,-34.91,-21.064974.00,-3.39,8.19,7.59,2.29,-0.94,0.21,-53.77,-46.89,-11.215025.00,-3.59,6.64,4.73,2.30,-0.73,-0.08,-53.77,-46.89,-11.215077.00,-3.16,8.84,5.41,-0.66,-0.82,0.27,-53.77,-46.89,-11.215128.00,-3.49,7.28,5.15,0.43,-0.40,-0.02,-52.89,-48.83,-10.025180.00,-3.32,8.12,4.84,-0.13,-0.17,0.09,-52.89,-48.83,-10.025231.00,-3.56,7.73,4.94,0.82,-0.20,-0.43,-52.19,-50.24,-10.025283.00,-4.26,8.84,5.18,0.04,0.05,-0.20,-52.19,-50.24,-10.025335.00,-4.59,9.59,6.04,2.22,0.93,-0.30,-52.19,-50.24,-10.025386.00,-5.00,10.29,3.66,3.13,1.31,-0.65,-53.94,-52.01,-2.895438.00,-6.64,9.19,1.66,3.45,1.01,-0.19,-53.94,-52.01,-2.895489.00,-6.64,8.96,0.66,1.70,-0.38,0.44,-55.70,-46.72,13.085541.00,-5.77,7.12,0.04,-0.10,-0.90,0.79,-55.70,-46.72,13.085593.00,-4.55,7.73,0.70,-2.50,-1.30,0.59,-55.70,-46.72,13.085644.00,-4.54,6.16,1.99,2.68,-0.38,0.41,-54.82,-49.36,8.495696.00,-4.91,5.35,-1.18,1.69,0.07,0.11,-54.82,-49.36,8.495748.00,-4.85,5.84,-2.35,0.58,-0.41,-0.02,-53.06,-47.25,13.935799.00,-5.18,6.53,-0.97,-0.63,-0.40,0.63,-53.06,-47.25,13.935851.00,-3.25,8.93,0.69,-1.73,0.20,0.17,-53.06,-51.13,11.215902.00,-4.24,8.17,0.45,-0.91,0.63,0.06,-53.06,-51.13,11.215954.00,-5.99,7.88,2.77,-1.31,0.30,-0.23,-53.06,-51.13,11.216006.00,-5.37,8.95,1.28,-0.26,0.69,-0.41,-51.66,-51.48,6.456058.00,-5.17,9.15,1.95,0.25,0.90,-0.64,-51.66,-51.48,6.456109.00,-3.87,9.78,-0.47,2.11,1.76,-0.63,-51.66,-51.48,6.456161.00,-5.99,7.52,-2.58,4.35,1.88,-1.18,-53.59,-49.89,15.466213.00,-6.13,7.65,-6.69,3.62,1.16,-0.88,-53.59,-49.89,15.466264.00,-6.04,6.66,-4.90,4.35,1.08,-1.40,-52.01,-30.68,34.656316.00,-4.68,2.86,-8.36,2.45,0.25,-1.09,-52.01,-30.68,34.656368.00,-5.24,1.50,-7.44,0.92,-0.27,0.13,-49.02,-12.87,40.596419.00,-4.85,5.89,-8.01,-4.23,-1.15,1.23,-49.02,-12.87,40.596471.00,-5.30,8.44,-6.15,-0.70,-0.70,0.24,-49.02,-12.87,40.596523.00,-3.82,6.30,-7.48,-0.24,-0.36,0.08,-53.59,-29.44,34.486574.00,-4.70,6.81,-7.08,3.13,0.05,0.45,-53.59,-29.44,34.486626.00,-3.71,4.77,-7.71,2.88,0.17,0.46,-52.89,-25.21,36.866678.00,-3.80,6.31,-8.29,-1.32,-0.01,0.75,-52.89,-25.21,36.866729.00,-6.24,7.70,-9.54,1.39,-0.24,0.53,-52.89,-25.21,36.866781.00,-5.93,3.21,-9.84,-0.04,0.53,-0.29,-51.83,-22.39,36.866833.00,-6.23,5.84,-6.55,0.59,-0.37,0.80,-51.83,-22.39,36.866885.00,-6.22,5.37,-6.99,0.92,-0.20,0.28,-52.19,-19.57,38.226936.00,-5.27,3.19,-7.85,1.06,-0.23,0.18,-52.19,-19.57,38.226988.00,-5.27,3.94,-7.99,0.69,-0.40,0.18,-52.19,-19.57,38.227040.00,-4.75,2.33,-7.01,1.38,-0.29,-0.10,-52.36,-15.87,35.337092.00,-4.80,3.04,-8.08,0.16,-0.12,0.12,-52.36,-15.87,35.337143.00,-5.62,4.02,-7.77,0.99,-0.05,0.05,-53.42,-9.87,36.017195.00,-4.20,1.69,-8.05,3.54,-0.27,-0.49,-53.42,-9.87,36.017247.00,-6.18,1.54,-7.43,4.35,-0.32,-0.57,-52.89,3.70,30.747298.00,-6.26,-4.87,-3.78,4.35,-0.06,-0.89,-52.89,3.70,30.747350.00,-5.58,-5.37,-4.12,4.35,0.51,-0.38,-52.89,3.70,30.747402.00,-5.78,-7.48,-6.91,1.70,0.83,-0.61,-48.67,22.39,9.687453.00,-5.15,-9.93,-3.59,-0.88,0.25,0.09,-48.67,22.39,9.687505.00,-5.91,-6.19,-6.48,-2.40,0.14,1.43,-49.20,21.86,8.837557.00,-5.81,-8.84,-5.92,-1.07,0.96,0.91,-49.20,21.86,8.837609.00,-5.21,-4.62,-6.51,-4.13,0.07,1.53,-49.20,21.86,8.837661.00,-5.99,-0.95,-9.36,-1.20,0.06,0.34,-54.12,13.40,16.997713.00,-6.28,-1.47,-5.55,3.67,-0.50,-0.53,-54.12,13.40,16.997764.00,-4.91,-1.86,-7.59,4.35,-0.58,-2.12,-53.77,14.46,12.917816.00,-6.68,-10.67,0.54,3.35,-0.67,-0.18,-53.77,14.46,12.917868.00,-6.23,-6.72,-4.58,0.07,0.12,0.13,-53.77,14.46,12.917920.00,-6.22,-10.05,-1.31,0.85,0.25,0.50,-49.37,21.68,-2.897971.00,-7.23,-9.59,-0.46,-1.85,0.30,0.93,-49.37,21.68,-2.898023.00,-5.36,-4.88,-4.23,-4.38,0.02,2.07,-51.31,17.28,1.028075.00,-7.15,-2.61,-5.42,-4.10,-0.04,1.73,-51.31,17.28,1.028127.00,-6.26,-0.77,-7.46,-3.45,-0.81,1.03,-59.57,3.70,13.428178.00,-7.98,-1.95,-7.16,-1.29,-0.37,0.68,-59.57,3.70,13.428230.00,-9.03,-1.01,-5.76,-0.09,-0.71,0.04,-59.57,3.70,13.428282.00,-7.51,-2.63,-4.83,0.49,-0.36,-0.25,-61.50,-0.71,10.538334.00,-8.94,-2.68,-4.30,0.38,-0.37,-0.11,-61.50,-0.71,10.538386.00,-8.25,-2.31,-4.81,-0.11,0.11,0.12,-61.15,1.06,9.858437.00,-8.67,-1.27,-5.71,-0.11,-0.01,0.19,-61.15,1.06,9.858489.00,-7.78,-2.32,-5.63,-0.07,-0.09,0.14,-61.15,1.06,9.858541.00,-7.99,-2.06,-5.44,0.27,-0.39,0.23,-61.32,-0.18,9.348593.00,-8.62,-1.90,-4.27,-0.15,0.01,0.11,-61.32,-0.18,9.348644.00,-8.54,-2.10,-4.80,-0.14,-0.08,0.04,-61.50,-0.71,7.138696.00,-8.69,-2.44,-3.88,-0.44,-0.17,-0.07,-61.50,-0.71,7.138748.00,-8.76,0.08,-5.96,-0.66,-0.22,-0.09,-61.85,-1.76,8.158800.00,-7.61,-1.42,-5.08,-0.43,-0.12,-0.30,-61.85,-1.76,8.158852.00,-9.52,-1.63,-4.10,-0.49,-0.17,-0.48,-61.85,-1.76,8.158903.00,-8.12,-1.30,-5.69,0.12,-0.10,-0.76,-62.03,1.59,7.308955.00,-7.64,-2.75,-4.75,0.38,0.04,-0.57,-62.03,1.59,7.309007.00,-8.81,-3.14,-4.75,0.26,0.27,-0.14,-60.97,5.47,7.309059.00,-7.40,-5.73,-4.64,0.35,0.23,0.24,-60.97,5.47,7.309111.00,-7.34,-2.80,-4.99,0.26,0.12,0.51,-60.97,5.47,7.309163.00,-7.52,-3.10,-4.76,-0.21,-0.02,0.69,-63.61,2.82,7.819215.00,-7.78,0.26,-5.58,-0.82,-0.23,0.84,-63.61,2.82,7.819266.00,-8.38,-2.98,-4.20,-0.31,-0.21,0.03,-63.96,-1.41,8.839318.00,-8.69,-0.93,-4.51,-0.82,-0.15,0.11,-63.96,-1.41,8.839370.00,-8.74,-1.15,-5.27,-0.47,-0.09,-0.19,-63.96,-1.41,8.839422.00,-7.63,-0.24,-5.53,-0.08,-0.09,-0.35,-62.38,-0.88,7.989474.00,-8.85,-2.73,-3.41,-0.02,-0.08,-0.46,-62.38,-0.88,7.989525.00,-7.66,-1.41,-5.26,0.04,0.02,-0.54,-60.80,1.06,9.179577.00,-8.49,-1.66,-4.85,-0.05,-0.01,-0.46,-60.80,1.06,9.179629.00,-8.35,-1.97,-4.94,-0.12,-0.04,-0.55,-61.15,2.47,8.499681.00,-8.24,-2.66,-4.81,0.07,0.18,-0.29,-61.15,2.47,8.499733.00,-8.59,-2.22,-5.13,0.09,0.19,-0.11,-61.15,2.47,8.499785.00,-8.89,-1.99,-5.09,-0.11,0.18,0.26,-60.97,4.76,10.369836.00,-9.14,-1.98,-5.07,0.09,0.09,0.47,-60.97,4.76,10.369888.00,-8.37,-2.38,-4.95,0.04,-0.03,0.56,-61.32,3.35,10.029940.00,-9.99,1.46,-5.07,-0.35,-0.12,0.71,-61.32,3.35,10.029992.00,-9.66,-0.03,-4.02,-0.62,-0.17,0.87,-61.32,3.35,10.0210044.00,-9.01,0.05,-4.89,-0.43,-0.22,0.32,-62.38,-1.59,10.7010096.00,-8.97,-0.62,-4.97,-0.41,-0.06,0.32,-62.38,-1.59,10.7010148.00,-8.66,0.23,-4.91,-0.55,-0.09,0.08,-64.49,-4.76,12.7410200.00,-8.02,-1.56,-4.73,-0.11,-0.05,-0.41,-64.49,-4.76,12.7410252.00,-8.72,-0.73,-4.71,0.07,-0.04,-0.50,-64.49,-4.76,12.7410303.00,-7.99,-0.07,-5.88,0.03,0.02,-0.57,-63.96,-2.47,11.2110355.00,-9.22,-0.68,-6.61,-0.01,-0.03,-0.64,-63.96,-2.47,11.2110407.00,-7.92,-1.51,-5.17,0.07,0.10,-0.55,-60.97,0.18,9.6810459.00,-8.33,-0.88,-5.51,0.14,0.20,-0.27,-60.97,0.18,9.6810511.00,-8.26,-2.36,-5.17,0.22,0.13,-0.12,-60.80,5.99,9.8510563.00,-8.66,-2.07,-4.66,0.24,0.18,0.16,-60.80,5.99,9.8510615.00,-7.99,-1.11,-5.36,0.12,0.09,0.68,-62.73,1.23,12.0610667.00,-8.01,-1.25,-5.42,-0.20,-0.03,0.86,-62.73,1.23,12.0610719.00,-9.33,0.20,-3.77,-0.36,-0.25,0.60,-62.73,1.23,12.0610771.00,-8.46,-0.98,-4.45,-0.39,-0.13,0.51,-63.96,-1.06,10.1910823.00,-8.65,0.74,-4.96,-0.48,-0.12,0.30,-63.96,-1.06,10.1910875.00,-9.72,1.61,-4.64,-0.29,-0.05,0.05,-63.96,-1.06,10.1910926.00,-8.74,-0.11,-4.64,-0.00,-0.14,-0.40,-64.49,-5.11,11.3810978.00,-8.79,0.42,-5.58,0.01,0.09,-0.44,-64.49,-5.11,11.3811030.00,-7.94,-0.39,-4.54,-0.02,0.02,-0.59,-63.96,-2.12,10.5311082.00,-7.65,-0.28,-6.25,0.29,0.22,-0.72,-63.96,-2.12,10.5311134.00,-7.58,-1.64,-5.39,0.33,0.21,-0.57,-62.03,1.94,11.3811186.00,-8.77,-1.33,-5.57,0.18,0.14,-0.12,-62.03,1.94,11.3811238.00,-8.40,-2.11,-4.69,0.20,0.20,0.46,-62.03,1.94,11.3811290.00,-7.80,-2.42,-5.25,0.18,0.07,0.61,-62.38,2.29,11.0411342.00,-8.74,-1.42,-4.96,-0.18,-0.20,0.84,-62.38,2.29,11.0411394.00,-8.30,-0.36,-5.28,-0.50,-0.26,0.63,-63.96,-3.17,11.8911446.00,-9.22,0.74,-4.91,-0.31,-0.11,0.37,-63.96,-3.17,11.8911498.00,-8.53,-0.07,-4.56,-0.15,-0.05,-0.09,-64.66,-5.29,10.5311550.00,-8.04,0.71,-5.77,-0.12,-0.04,-0.32,-64.66,-5.29,10.5311602.00,-8.20,0.00,-4.83,0.15,0.06,-0.51,-64.66,-5.29,10.5311654.00,-8.66,-0.23,-5.43,0.05,0.10,-0.66,-63.43,-1.94,9.6811706.00,-8.13,-0.18,-5.96,0.01,0.24,-0.75,-63.43,-1.94,9.6811758.00,-8.26,-1.47,-5.32,0.41,0.15,-0.47,-62.03,1.23,11.7211810.00,-8.27,-1.85,-4.92,0.22,0.12,-0.04,-62.03,1.23,11.7211862.00,-8.96,-1.83,-5.19,0.11,0.07,0.69,-62.03,1.23,11.7211914.00,-9.17,0.77,-5.11,-0.13,-0.19,1.00,-60.80,0.00,11.2111966.00,-9.30,-0.74,-3.53,-0.43,-0.27,0.72,-60.80,0.00,11.2112018.00,-9.27,0.23,-4.98,-0.31,-0.12,0.11,-65.01,-5.29,11.8912069.00,-8.66,-0.65,-4.64,-0.17,-0.05,-0.33,-65.01,-5.29,11.8912122.00,-8.89,0.22,-5.35,-0.19,-0.06,-0.58,-64.66,-2.12,10.1912174.00,-8.56,-0.07,-6.05,0.03,0.10,-0.58,-64.66,-2.12,10.1912226.00,-8.06,0.18,-6.03,0.06,0.16,-0.73,-64.66,-2.12,10.1912278.00,-8.45,-1.26,-5.48,0.12,0.16,-0.38,-63.08,1.94,12.0612330.00,-8.85,-0.88,-4.76,0.02,0.10,-0.06,-63.08,1.94,12.0612382.00,-8.65,-0.85,-5.30,-0.04,0.10,0.56,-62.90,2.12,12.2312434.00,-8.18,-1.95,-5.86,0.15,0.01,0.80,-62.90,2.12,12.2312486.00,-9.09,-1.14,-4.58,-0.37,-0.30,0.87,-62.90,2.12,12.2312538.00,-8.87,-0.31,-4.58,-0.41,-0.25,0.54,-64.13,-2.64,11.0412590.00,-8.85,0.63,-4.45,-0.40,-0.14,0.29,-64.13,-2.64,11.0412642.00,-8.87,1.31,-4.27,-0.32,-0.07,-0.02,-64.66,-3.88,12.2312694.00,-8.97,-0.28,-4.93,-0.08,-0.06,-0.48,-64.66,-3.88,12.2312746.00,-8.31,-0.15,-5.38,0.23,-0.01,-0.59,-64.66,-3.88,12.2312798.00,-8.01,1.17,-5.44,-0.12,0.09,-0.56,-65.54,-2.29,10.3612850.00,-8.03,0.16,-5.46,0.01,0.03,-0.76,-65.54,-2.29,10.3612902.00,-8.56,-1.47,-4.69,0.17,0.18,-0.49,-62.03,0.53,11.3812954.00,-8.82,-0.83,-4.95,0.03,0.20,-0.24,-62.03,0.53,11.3813006.00,-8.50,-1.16,-5.39,-0.10,0.15,0.32,-62.90,3.17,11.8913058.00,-8.63,0.36,-5.45,-0.26,-0.04,0.67,-62.90,3.17,11.8913110.00,-9.00,-1.63,-3.80,-0.09,-0.18,0.79,-62.90,3.17,11.8913162.00,-8.23,-0.65,-4.95,-0.22,-0.31,0.41,-64.66,-1.76,12.9113214.00,-9.43,-0.06,-2.93,-0.17,-0.43,0.45,-64.66,-1.76,12.9113266.00,-9.27,0.43,-4.77,-0.18,-0.21,-0.18,-65.01,-3.53,10.1913319.00,-9.01,0.58,-5.00,-0.14,0.03,-0.51,-65.01,-3.53,10.1913371.00,-9.13,-0.53,-3.66,0.17,-0.05,-0.78,-65.01,-3.53,10.1913423.00,-8.47,-1.52,-5.48,0.16,0.16,-0.68,-64.13,-0.53,9.3413475.00,-8.38,-0.59,-5.37,0.44,0.34,-0.56,-64.13,-0.53,9.3413527.00,-9.05,-1.00,-4.81,0.36,0.31,-0.18,-62.90,3.53,12.5713579.00,-8.86,-1.09,-4.90,0.13,0.18,0.56,-62.90,3.53,12.5713631.00,-7.56,-1.16,-5.82,0.31,0.03,0.71,-62.90,3.53,12.5713683.00,-8.10,-1.62,-4.82,0.01,-0.25,0.70,-62.90,1.41,11.8913735.00,-8.99,-0.10,-3.84,-0.02,-0.20,0.52,-62.90,1.41,11.8913788.00,-8.76,0.71,-4.45,-0.23,-0.19,-0.04,-65.01,-2.82,11.5513840.00,-9.65,-0.65,-3.50,0.02,-0.10,-0.38,-65.01,-2.82,11.5513892.00,-8.64,-0.44,-4.50,0.09,0.03,-0.44,-64.31,0.71,10.8713944.00,-7.95,1.29,-5.87,0.11,0.06,-0.45,-64.31,0.71,10.8713996.00,-8.29,-1.08,-4.20,0.46,0.05,-0.66,-64.31,0.71,10.8714048.00,-9.33,-1.44,-5.15,0.16,0.21,-0.62,-62.38,5.47,9.3414100.00,-8.44,-2.20,-4.93,0.20,0.26,-0.22,-62.38,5.47,9.3414152.00,-8.47,-1.82,-4.97,0.04,0.13,0.18,-60.44,7.05,10.8714204.00,-8.86,-1.93,-4.78,0.05,0.05,0.57,-60.44,7.05,10.8714256.00,-9.01,-1.75,-4.36,-0.31,-0.13,0.80,-60.44,7.05,10.8714308.00,-8.88,0.14,-5.20,-0.63,-0.33,0.60,-61.67,3.00,10.7014360.00,-8.76,-1.05,-4.14,-0.55,-0.17,0.18,-61.67,3.00,10.7014413.00,-8.84,0.37,-5.18,-0.52,-0.11,0.10,-64.31,0.35,11.5514465.00,-8.73,-1.15,-3.75,-0.26,-0.18,-0.39,-64.31,0.35,11.5514517.00,-8.84,0.08,-5.72,-0.14,0.03,-0.25,-64.13,0.53,10.7014569.00,-8.52,-0.70,-4.92,0.11,0.04,-0.58,-64.13,0.53,10.7014621.00,-8.60,-2.36,-4.51,0.26,0.05,-0.79,-64.13,0.53,10.7014673.00,-7.71,-0.27,-4.59,0.50,0.10,-0.84,-62.38,6.17,11.7214725.00,-8.37,-2.17,-5.16,0.27,0.34,-0.45,-62.38,6.17,11.7214778.00,-8.31,-1.47,-4.77,0.10,0.17,-0.04,-60.27,8.64,10.7014830.00,-8.41,-2.82,-4.44,-0.05,0.16,0.36,-60.27,8.64,10.7014882.00,-8.94,-1.39,-4.76,-0.11,0.06,0.70,-61.67,6.52,12.4014934.00,-8.51,-2.01,-5.20,-0.28,-0.08,0.74,-61.67,6.52,12.4014986.00,-8.47,-2.24,-4.57,-0.28,-0.15,0.45,-61.67,6.52,12.4015038.00,-8.46,-0.54,-5.21,-0.30,-0.20,0.46,-63.43,1.94,13.0815091.00,-9.02,-0.25,-4.64,-0.20,-0.16,0.26,-63.43,1.94,13.0815143.00,-8.89,-0.43,-4.24,-0.35,-0.10,-0.13,-63.43,-0.18,12.4015195.00,-9.23,0.48,-4.26,-0.32,-0.03,-0.17,-63.43,-0.18,12.4015247.00,-8.41,0.00,-4.72,-0.26,0.04,-0.45,-63.43,-0.18,12.4015299.00,-8.18,0.08,-5.98,-0.04,0.02,-0.66,-63.26,0.71,12.9115352.00,-8.98,-0.77,-5.18,0.05,0.06,-0.71,-63.26,0.71,12.9115404.00,-8.97,-0.75,-4.82,0.07,0.04,-0.61,-62.03,5.11,13.4215456.00,-8.38,-0.68,-4.82,-0.07,0.13,-0.57,-62.03,5.11,13.4215508.00,-8.75,-1.12,-5.31,0.10,0.17,-0.23,-62.03,5.11,13.4215560.00,-9.13,-0.30,-4.77,0.05,0.00,0.09,-60.44,8.11,12.2315612.00,-7.58,-4.68,-4.81,0.20,0.10,0.09,-60.44,8.11,12.2315665.00,-8.93,-0.95,-5.07,-0.14,-0.07,0.55,-61.85,8.81,12.5715717.00,-7.12,-3.02,-5.51,-0.17,-0.12,0.52,-61.85,8.81,12.5715769.00,-8.73,0.36,-5.32,-0.47,-0.24,0.67,-62.55,4.58,13.2515821.00,-9.07,-0.42,-3.66,-0.38,-0.23,0.48,-62.55,4.58,13.2515873.00,-9.12,0.62,-4.97,-0.30,-0.13,0.18,-62.55,4.58,13.2515925.00,-9.11,0.52,-4.66,-0.30,-0.18,-0.13,-64.13,0.88,12.7415978.00,-8.64,-0.23,-4.56,-0.23,-0.01,-0.33,-64.13,0.88,12.7416030.00,-8.98,0.10,-5.29,-0.00,0.00,-0.58,-64.31,3.53,13.5916082.00,-9.47,-0.65,-5.45,0.24,0.08,-0.85,-64.31,3.53,13.5916134.00,-8.79,-0.20,-4.93,0.17,0.08,-0.79,-64.31,3.53,13.5916187.00,-9.81,-1.87,-4.90,0.23,0.23,-0.66,-61.85,7.40,13.5916239.00,-8.79,-1.40,-5.67,0.09,0.25,-0.31,-61.85,7.40,13.5916291.00,-9.27,-2.20,-4.64,0.05,0.15,0.22,-60.09,10.23,15.6316343.00,-8.38,-2.37,-4.81,-0.02,0.05,0.66,-60.09,10.23,15.6316395.00,-8.71,-2.93,-4.97,-0.10,-0.03,0.65,-62.03,7.93,13.4216448.00,-8.69,-0.66,-4.56,-0.56,-0.30,0.71,-62.03,7.93,13.4216501.00,-8.70,-1.82,-4.76,-0.36,-0.15,0.15,-62.03,7.93,13.4216556.00,-8.92,0.14,-4.68,-0.41,-0.15,0.09,-63.78,3.00,13.7616607.00,-8.47,-0.31,-4.82,-0.25,-0.09,-0.37,-63.78,3.00,13.7616658.00,-9.08,-0.11,-4.91,-0.20,-0.02,-0.39,-64.13,3.00,13.0816708.00,-8.36,-0.47,-4.27,0.08,0.09,-0.69,-64.13,3.00,13.0816759.00,-8.66,-0.25,-4.82,-0.10,0.17,-0.61,-64.13,3.00,13.0816810.00,-9.90,-1.42,-4.97,0.41,0.26,-0.67,-62.38,7.93,15.1216860.00,-9.03,-1.81,-5.13,0.21,0.24,-0.47,-62.38,7.93,15.1216911.00,-8.76,-2.21,-4.67,0.18,0.15,-0.17,-58.51,11.46,13.7616962.00,-8.57,-3.12,-4.89,0.25,0.09,-0.03,-58.51,11.46,13.7617012.00,-9.36,-0.27,-4.69,-0.23,0.05,0.67,-58.51,11.46,13.7617063.00,-7.94,-3.35,-5.02,-0.03,-0.00,0.41,-59.92,11.81,15.8017114.00,-8.83,-1.43,-4.58,-0.37,-0.09,0.64,-59.92,11.81,15.8017164.00,-8.05,-1.19,-5.63,-0.45,-0.21,0.24,-60.27,6.17,16.8217215.00,-8.97,-0.01,-4.24,-0.32,-0.24,0.34,-60.27,6.17,16.8217266.00,-8.74,-0.25,-5.76,-0.38,-0.14,-0.12,-63.78,3.70,14.7817316.00,-8.85,-0.43,-4.42,-0.34,-0.14,-0.12,-63.78,3.70,14.7817367.00,-8.88,-0.21,-4.72,-0.30,0.04,0.00,-63.78,3.70,14.7817418.00,-8.55,-0.52,-4.66,-0.16,-0.02,-0.14,-63.43,4.41,14.7817469.00,-10.76,0.48,-3.02,0.29,-0.04,-0.46,-63.43,4.41,14.7817519.00,-9.49,-1.63,-3.97,-0.17,1.12,-0.68,-63.43,4.41,14.7817570.00,-7.53,-1.05,-6.01,0.17,1.42,-0.45,-60.62,5.82,17.4917621.00,-7.46,-0.59,-7.69,0.39,1.27,-0.19,-60.62,5.82,17.4917672.00,-6.81,-0.96,-6.87,0.66,0.40,-0.58,-57.11,9.34,24.2917723.00,-6.80,-2.07,-6.71,1.95,0.39,-0.92,-57.11,9.34,24.2917773.00,-7.45,-2.92,-6.40,2.22,0.08,-1.08,-53.24,18.16,19.5317824.00,-6.72,-4.66,-5.40,2.10,-0.27,-1.20,-53.24,18.16,19.5317875.00,-5.89,-6.09,-4.94,2.04,-0.37,-0.91,-53.24,18.16,19.5317926.00,-7.05,-4.59,-5.65,0.71,-0.39,-0.37,-48.50,27.15,10.5317977.00,-6.66,-5.65,-4.30,1.45,-0.84,-0.79,-48.50,27.15,10.5318028.00,-6.69,-5.91,-2.66,1.54,-0.65,-0.60,-45.16,28.74,0.8518078.00,-6.48,-6.95,-2.01,1.26,-0.60,-0.69,-45.16,28.74,0.8518129.00,-6.04,-5.13,-2.06,4.35,-1.04,-0.97,-45.16,28.74,0.8518180.00,-6.72,-7.97,1.37,4.35,-1.25,-0.79,-40.41,30.32,-14.9518231.00,-5.68,-7.86,4.43,2.55,-0.07,-0.11,-40.41,30.32,-14.9518282.00,-6.13,-7.38,5.19,2.09,1.07,0.42,-39.01,16.57,-30.5718333.00,-6.88,-5.82,1.14,-0.11,0.85,0.24,-39.01,16.57,-30.5718384.00,-6.76,-7.63,5.23,0.05,0.30,0.02,-39.01,16.57,-30.5718435.00,-6.87,-7.20,2.37,-0.58,1.01,0.46,-43.58,15.51,-28.5418485.00,-7.44,-6.48,2.35,-0.73,0.81,0.31,-43.58,15.51,-28.5418536.00,-7.05,-8.98,1.75,-1.52,1.23,0.08,-47.62,15.34,-23.9518587.00,-6.25,-6.08,-0.68,-2.92,2.32,1.54,-47.62,15.34,-23.9518638.00,-5.38,-4.11,-3.10,-2.35,2.63,1.68,-47.62,15.34,-23.9518689.00,-7.45,-4.75,-6.53,-0.67,1.91,2.31,-56.58,14.81,-7.1318740.00,-8.96,-2.26,-2.99,-0.21,1.49,2.53,-56.58,14.81,-7.1318791.00,-8.93,0.40,-8.54,-0.82,1.25,2.49,-65.36,-1.06,7.1318842.00,-7.63,1.24,-3.87,0.65,0.62,1.83,-65.36,-1.06,7.1318892.00,-7.35,-0.49,-5.70,1.94,1.20,1.48,-65.36,-1.06,7.1318943.00,-7.91,0.17,-6.56,2.51,1.03,1.35,-64.84,-10.75,12.4018994.00,-8.40,-0.32,-4.95,3.20,0.86,1.06,-64.84,-10.75,12.4019045.00,-7.79,-2.38,-5.33,2.40,1.32,0.69,-63.43,-14.63,19.1919096.00,-5.92,-3.65,-7.85,1.50,1.43,1.13,-63.43,-14.63,19.1919147.00,-8.79,-0.38,-6.46,1.97,0.62,2.12,-59.57,-17.45,25.3119198.00,-7.19,-1.40,-6.56,0.53,0.46,1.35,-59.57,-17.45,25.3119249.00,-8.70,-0.06,-4.44,1.25,0.41,1.44,-59.57,-17.45,25.3119300.00,-7.85,0.21,-5.90,0.75,0.85,1.08,-57.63,-20.10,28.8719351.00,-7.39,0.06,-7.41,0.65,0.34,0.63,-57.63,-20.10,28.8719402.00,-8.19,0.11,-5.01,0.64,0.30,0.70,-57.63,-20.10,28.8719453.00,-6.72,0.51,-8.62,-0.66,0.22,0.61,-54.65,-22.74,31.0819503.00,-7.06,1.17,-5.21,0.28,1.64,0.87,-54.65,-22.74,31.0819555.00,-5.64,1.33,-11.32,-0.68,2.32,0.37,-50.96,-23.98,34.6519605.00,-4.45,0.03,-8.17,0.74,0.52,-0.26,-50.96,-23.98,34.6519657.00,-5.95,-0.98,-9.02,-0.03,0.35,-0.45,-46.74,-23.62,38.3919708.00,-4.97,-0.79,-8.59,-0.12,0.52,-0.29,-46.74,-23.62,38.3919759.00,-3.98,-1.55,-8.72,-0.55,0.68,-0.28,-46.74,-23.62,38.3919810.00,-2.03,-1.31,-11.19,-0.75,0.79,-0.22,-45.68,-23.27,39.4119861.00,-4.09,-1.96,-10.59,-0.48,0.03,-0.20,-45.68,-23.27,39.4119912.00,-4.53,-1.53,-10.04,0.26,0.71,-0.08,-43.05,-23.80,39.9219962.00,-3.11,-0.63,-9.67,0.43,0.31,0.12,-43.05,-23.80,39.9220013.00,-4.23,-1.79,-7.19,0.89,0.59,-0.01,-43.05,-23.80,39.9220064.00,-2.89,-5.55,-10.64,0.19,0.95,-0.15,-40.24,-21.68,42.6320115.00,-3.02,-1.31,-9.43,0.53,0.57,0.43,-40.24,-21.68,42.6320166.00,-5.06,-3.89,-10.13,4.04,0.20,-0.70,-37.43,-15.34,44.3320217.00,-4.53,-4.96,-6.89,3.66,-0.52,0.06,-37.43,-15.34,44.3320268.00,-3.54,-5.02,-6.65,0.41,0.96,0.18,-37.43,-15.34,44.3320319.00,-3.67,-2.66,-9.35,-0.51,1.16,0.02,-35.32,-1.23,43.6520370.00,-3.27,-4.37,-9.19,0.57,1.10,-0.38,-35.32,-1.23,43.6520421.00,-1.01,-5.08,-9.63,-0.14,1.10,-0.54,-27.94,1.23,43.9920472.00,-1.80,-3.71,-9.94,-1.73,-0.05,0.15,-27.94,1.23,43.9920523.00,-1.20,-2.66,-8.87,-0.70,0.36,-0.04,-27.94,1.23,43.9920574.00,0.96,-6.11,-15.80,0.22,0.74,-0.63,-27.24,-7.23,45.6920625.00,-0.03,-3.97,-7.94,-0.59,0.59,-0.17,-27.24,-7.23,45.6920676.00,-0.08,-3.26,-9.89,-0.90,0.67,0.21,-22.67,-7.23,47.7320727.00,-0.19,-0.79,-17.08,-0.84,1.13,-0.09,-22.67,-7.23,47.7320778.00,0.26,-2.34,-9.07,-1.07,-0.23,0.27,-22.67,-7.23,47.7320829.00,0.14,-1.93,-9.88,-0.40,0.03,0.24,-21.79,-12.69,47.9020880.00,-0.06,-1.92,-10.47,-0.38,-0.10,0.13,-21.79,-12.69,47.9020931.00,0.17,-1.83,-10.24,-1.07,-0.31,0.33,-21.61,-13.57,48.0720982.00,0.25,-1.76,-9.65,-0.73,-0.29,0.27,-21.61,-13.57,48.0721033.00,-0.49,-1.05,-9.74,-1.68,-0.39,-0.06,-22.84,-20.45,45.5221084.00,-0.27,0.34,-10.49,-1.54,-0.37,-0.21,-22.84,-20.45,45.5221135.00,-0.38,0.14,-10.22,-0.16,0.03,-0.21,-22.84,-20.45,45.5221186.00,-0.20,-0.31,-10.16,-0.10,-0.04,0.12,-25.30,-24.68,43.4821237.00,-0.56,0.67,-10.23,-0.22,-0.01,0.19,-25.30,-24.68,43.4821288.00,-0.36,0.24,-10.23,-0.01,0.00,0.00,-24.60,-25.39,45.8621339.00,-0.38,0.28,-10.20,-0.00,0.00,0.00,-24.60,-25.39,45.8621390.00,-0.39,0.26,-10.21,-0.00,0.00,0.00,-24.60,-25.39,45.8621441.00,-0.39,0.28,-10.23,-0.00,0.00,0.00,-23.72,-25.21,44.3321492.00,-0.39,0.28,-10.20,-0.00,0.00,0.00,-23.72,-25.21,44.3321544.00,-0.38,0.26,-10.20,-0.00,0.00,0.00,-25.30,-26.09,45.8621595.00,-0.40,0.27,-10.21,-0.00,0.00,0.00,-25.30,-26.09,45.8621646.00,-0.39,0.28,-10.25,-0.00,0.00,0.00,-24.60,-26.09,45.8621697.00,-0.40,0.26,-10.18,0.00,0.00,0.00,-24.60,-25.39,45.1821748.00,-0.39,0.27,-10.17,-0.00,0.00,0.00,-24.60,-25.39,45.1821799.00,-0.39,0.26,-10.20,-0.00,0.00,0.00,-24.78,-24.86,45.6921850.00,-0.39,0.26,-10.21,0.00,0.00,0.00,-24.78,-24.86,45.6921901.00,-0.38,0.27,-10.21,-0.00,0.00,0.00,-24.78,-24.86,45.6921952.00,-0.40,0.27,-10.20,-0.00,0.00,0.00,-23.90,-26.09,44.8422003.00,-0.39,0.28,-10.18,-0.00,0.00,0.00,-23.90,-26.09,44.8422054.00,-0.37,0.26,-10.20,0.00,0.00,0.00,-24.95,-26.44,46.5422105.00,-0.40,0.28,-10.22,-0.00,0.00,0.00,-24.95,-26.44,46.5422157.00,-0.41,0.27,-10.18,-0.00,0.00,0.00,-25.13,-26.97,44.3322208.00,-0.40,0.28,-10.19,-0.00,0.00,0.00,-25.13,-26.97,44.3322259.00,-0.40,0.26,-10.21,-0.00,0.00,0.00,-25.13,-26.97,44.3322310.00,-0.39,0.28,-10.21,-0.00,0.00,0.00,-23.55,-25.03,45.8622361.00,-0.39,0.26,-10.18,-0.00,0.00,0.00,-23.55,-25.03,45.8622412.00,-0.40,0.26,-10.22,-0.00,0.00,0.00,-24.07,-25.21,46.7122463.00,-0.41,0.28,-10.20,-0.00,0.00,0.00,-24.07,-25.21,46.7122514.00,-0.86,1.73,-10.40,-0.11,-0.03,-0.72,-24.07,-25.21,46.7122565.00,-0.60,0.68,-10.39,-0.43,-0.10,-2.38,-25.30,-26.44,45.5222617.00,-0.54,0.70,-10.29,-0.27,0.11,-1.94,-25.30,-26.44,45.5222668.00,0.25,0.23,-9.78,-0.42,0.18,-2.51,-28.64,-26.62,44.6722719.00,-0.69,1.16,-10.32,-0.40,-0.00,-0.68,-28.64,-26.62,44.6722770.00,-0.42,0.54,-10.10,-0.01,0.02,-0.49,-28.64,-26.62,44.6722821.00,-0.27,0.21,-9.86,0.01,0.08,0.22,-31.10,-25.92,43.6522872.00,-0.65,0.10,-8.94,0.56,-0.01,-0.10,-31.10,-25.92,43.6522924.00,-0.79,1.52,-10.08,0.01,-0.03,-0.10,-29.69,-24.51,45.0122975.00,0.00,-0.17,-10.32,-0.08,0.07,-0.49,-29.69,-24.51,45.0123026.00,-0.36,0.52,-10.12,0.07,-0.00,-0.03,-29.69,-24.51,45.0123077.00,-0.22,0.32,-10.23,0.08,0.15,0.07,-31.10,-24.51,47.3923128.00,-0.29,0.48,-10.20,0.29,0.10,0.29,-31.10,-24.51,47.3923180.00,-0.40,0.76,-10.16,0.32,0.15,0.29,-28.99,-23.09,46.3723231.00,-0.37,0.44,-9.96,-0.11,0.16,0.05,-28.99,-23.09,46.3723282.00,0.26,0.06,-10.73,0.29,0.47,0.19,-28.99,-23.09,46.3723333.00,0.30,-0.39,-10.01,0.30,0.29,0.08,-28.46,-21.86,50.2823384.00,0.33,0.29,-10.24,0.04,0.11,0.10,-28.46,-21.86,50.2823436.00,0.02,0.41,-10.51,0.20,0.00,-0.04,-27.41,-22.21,47.5623487.00,0.47,-0.35,-10.01,0.48,0.18,-0.11,-27.41,-22.21,47.5623538.00,0.61,-1.78,-10.13,-0.03,-0.45,-0.55,-27.76,-19.75,48.5823589.00,-0.44,0.31,-10.16,-0.16,-0.30,0.24,-27.76,-19.75,48.5823640.00,-0.03,-0.49,-10.15,0.03,0.03,-0.58,-27.76,-19.75,48.5823692.00,-0.06,-0.40,-10.11,-0.12,-0.00,-0.05,-29.34,-20.98,46.3723743.00,-0.10,0.20,-10.33,-0.06,0.03,0.02,-29.34,-20.98,46.3723794.00,-0.06,-0.24,-10.19,0.04,0.02,-0.02,-28.82,-20.45,46.5423845.00,0.06,-0.18,-10.26,0.07,0.12,-0.02,-28.82,-20.45,46.5423896.00,-0.05,0.16,-10.20,-0.02,0.03,-0.21,-28.82,-20.45,46.5423948.00,0.08,-0.32,-10.25,-0.01,-0.00,-0.13,-29.17,-20.45,46.2023999.00,0.01,-0.11,-10.26,0.00,0.08,0.01,-29.17,-20.45,46.2024050.00,0.17,-0.45,-10.06,-0.08,0.18,0.08,-28.64,-19.22,45.3524101.00,0.18,-0.09,-10.28,-0.05,0.07,0.15,-28.64,-19.22,45.3524153.00,0.20,-0.19,-10.12,0.01,-0.02,-0.04,-28.64,-19.22,45.3524204.00,0.20,-0.19,-10.25,-0.02,0.01,-0.03,-28.29,-20.63,45.6924255.00,0.10,0.11,-10.26,-0.02,-0.03,0.05,-28.29,-20.63,45.6924306.00,0.28,-0.19,-10.25,0.26,0.15,-0.15,-27.59,-21.33,46.3724358.00,0.32,-0.35,-10.18,-0.08,0.03,0.03,-27.59,-21.33,46.3724409.00,0.25,0.03,-10.19,-0.28,-0.21,0.23,-27.76,-20.80,46.2024460.00,0.13,0.09,-10.39,-0.04,-0.11,0.03,-27.76,-20.80,46.2024512.00,0.06,-0.62,-10.03,0.19,-0.01,-0.31,-27.76,-20.80,46.20