time,ax,ay,az,gx,gy,gz,mx,my,mz50.00,-0.23,0.07,-10.15,0.00,-0.01,-0.01,-28.11,-23.62,47.22101.00,-0.21,0.08,-10.19,0.00,-0.01,-0.01,-28.11,-23.62,47.22152.00,-0.21,0.07,-10.21,0.00,-0.01,-0.01,-28.64,-21.33,47.39204.00,-0.21,0.08,-10.21,-0.00,-0.01,-0.01,-28.64,-21.33,47.39255.00,-0.23,0.06,-10.21,-0.00,-0.01,-0.01,-29.87,-23.27,47.56306.00,-0.20,0.07,-10.19,0.00,-0.01,-0.01,-29.87,-23.27,47.56358.00,-0.23,0.07,-10.21,0.00,-0.01,-0.01,-28.99,-22.39,48.07409.00,-0.22,0.06,-10.20,0.00,-0.01,-0.01,-28.99,-22.39,48.07460.00,-0.29,0.15,-10.09,-0.03,-0.02,0.51,-28.99,-22.39,48.07511.00,-0.23,0.23,-10.29,-0.01,-0.03,0.20,-28.99,-22.39,48.07563.00,-0.11,0.08,-10.34,0.08,0.03,0.45,-28.99,-22.39,48.07614.00,-0.85,1.00,-10.18,-0.01,0.02,0.57,-28.99,-22.39,48.07665.00,-0.10,-0.02,-10.23,-0.01,-0.04,0.04,-27.94,-23.80,48.41717.00,-0.37,-0.30,-9.92,0.01,-0.06,0.08,-27.94,-23.80,48.41768.00,-0.43,-0.05,-10.19,0.08,0.17,0.25,-28.29,-23.80,48.41819.00,0.04,0.15,-10.17,-0.04,0.13,0.01,-28.29,-23.80,48.41870.00,0.58,-0.06,-10.63,-0.01,0.06,-0.05,-26.53,-22.74,48.41921.00,-0.11,1.10,-10.87,-0.48,0.06,-0.02,-26.53,-22.74,48.41973.00,-0.12,0.08,-10.16,0.02,-0.01,-0.02,-26.53,-22.74,48.411024.00,-0.19,0.22,-10.24,0.01,-0.01,-0.03,-27.24,-23.09,46.371076.00,-0.14,0.12,-10.19,0.00,-0.01,-0.03,-27.24,-23.09,46.371127.00,0.00,0.49,-10.56,0.02,-0.03,-0.07,-28.29,-22.74,48.071178.00,-0.55,0.14,-10.18,0.25,-0.04,0.21,-28.29,-22.74,48.071230.00,-0.28,0.02,-10.17,0.16,-0.01,0.14,-28.29,-22.74,48.071281.00,-0.32,-0.31,-10.24,0.79,0.07,0.12,-27.59,-22.04,47.391332.00,-0.17,-0.01,-10.54,1.12,0.15,-0.07,-27.59,-22.04,47.391384.00,-0.04,-1.41,-10.00,0.68,0.01,-0.16,-26.01,-17.28,48.241435.00,-0.18,-0.84,-10.46,0.40,0.02,-0.25,-26.01,-17.28,48.241486.00,0.61,-3.54,-12.33,0.96,-0.09,-0.24,-26.01,-17.28,48.241538.00,-1.04,-0.94,-11.75,1.07,-1.09,0.03,-27.76,-12.69,48.581589.00,-1.30,-1.91,-11.48,2.04,-1.57,-0.43,-27.76,-12.69,48.581640.00,-3.19,-4.80,-9.44,1.93,-1.96,-0.33,-32.68,-4.94,46.881691.00,-2.95,-4.84,-8.51,1.23,-1.82,0.20,-32.68,-4.94,46.881743.00,-4.37,-4.72,-8.36,0.55,-1.49,0.36,-42.70,0.18,42.631794.00,-2.38,-6.47,-7.54,0.99,-1.51,0.44,-42.70,0.18,42.631845.00,-4.05,-4.17,-5.12,0.66,-2.12,0.96,-42.70,0.18,42.631897.00,-7.10,-5.90,-4.51,1.01,-1.95,0.89,-50.96,-1.76,33.291948.00,-6.06,-2.32,-4.93,1.18,-2.07,0.35,-50.96,-1.76,33.292000.00,-4.52,-4.38,-1.76,3.38,-2.86,-0.68,-57.81,3.35,22.932051.00,-6.70,-6.73,0.08,4.29,-2.76,-0.49,-57.81,3.35,22.932102.00,-5.83,-6.28,1.13,3.48,-2.39,0.32,-57.81,3.35,22.932154.00,-6.79,-6.43,2.02,3.53,-2.21,0.67,-60.80,7.05,-1.362205.00,-6.54,-4.88,4.38,2.38,-2.26,0.84,-60.80,7.05,-1.362256.00,-6.43,-4.27,8.28,1.59,-1.98,0.76,-60.09,-2.82,-18.002308.00,-5.37,-2.55,4.46,-1.42,-0.35,0.13,-60.09,-2.82,-18.002359.00,-6.62,-3.07,6.43,-0.01,0.16,-0.49,-56.23,-1.41,-19.702411.00,-4.64,-6.48,7.23,-0.05,0.68,-1.32,-56.23,-1.41,-19.702462.00,-5.84,-5.55,4.15,-0.78,1.05,0.08,-56.23,-1.41,-19.702513.00,-7.36,-4.96,3.13,-0.31,0.73,0.19,-59.74,1.76,-15.292565.00,-7.39,-6.32,5.85,1.48,-0.25,0.21,-59.74,1.76,-15.292616.00,-7.92,-3.41,3.90,1.47,0.29,0.57,-59.74,1.76,-15.292668.00,-5.66,-3.85,5.69,4.35,-0.78,0.48,-59.57,-4.05,-15.122719.00,-5.82,-2.44,9.50,2.72,-0.82,1.07,-59.57,-4.05,-15.122770.00,-4.20,-0.06,8.85,2.84,0.36,1.83,-60.97,-19.22,-18.852822.00,-7.99,3.19,7.81,-1.12,0.51,-0.43,-60.97,-19.22,-18.852873.00,-6.82,-2.86,8.14,-0.63,0.51,-1.05,-60.97,-19.22,-18.852925.00,-6.60,0.47,6.65,0.97,0.55,0.37,-60.44,-21.16,-17.662976.00,-7.65,0.53,5.76,0.20,0.91,0.13,-60.44,-21.16,-17.663028.00,-7.31,0.79,7.48,-0.18,0.39,-0.13,-63.08,-23.09,-14.103079.00,-7.47,-0.58,4.55,0.34,0.88,0.05,-63.08,-23.09,-14.103130.00,-9.75,1.82,4.44,0.87,0.36,0.49,-64.49,-25.21,-10.023182.00,-6.64,0.84,6.51,0.21,-0.00,0.11,-64.49,-25.21,-10.023233.00,-8.74,1.08,6.05,0.51,0.54,0.24,-64.49,-25.21,-10.023285.00,-8.17,2.51,4.73,0.49,0.32,0.54,-64.13,-26.97,-6.963336.00,-8.10,2.18,4.93,0.01,-0.12,-0.02,-64.13,-26.97,-6.963388.00,-8.11,2.32,4.91,0.46,0.16,0.37,-63.78,-28.74,-5.613440.00,-8.05,1.48,4.20,-0.18,0.04,-0.19,-63.78,-28.74,-5.613494.00,-8.86,1.82,5.92,0.25,-0.20,0.02,-63.78,-28.74,-5.613544.00,-7.63,2.61,6.06,0.00,-0.05,-0.07,-64.66,-29.62,-5.773594.00,-8.09,1.57,4.82,0.06,0.19,-0.15,-64.66,-29.62,-5.773644.00,-8.29,2.27,4.73,-0.12,0.01,0.04,-64.66,-28.56,-4.423694.00,-8.10,1.97,5.17,-0.12,-0.06,-0.04,-64.66,-28.56,-4.423744.00,-7.95,2.18,5.32,-0.08,0.09,-0.03,-63.96,-28.21,-5.443794.00,-8.24,1.98,5.05,-0.08,-0.04,-0.05,-63.96,-28.21,-5.443844.00,-8.05,1.88,4.97,0.03,0.00,-0.08,-63.96,-28.21,-5.443893.00,-8.35,2.10,5.23,0.06,0.04,-0.06,-63.96,-30.32,-6.453943.00,-8.41,2.13,4.87,-0.09,0.06,-0.12,-63.96,-30.32,-6.453993.00,-8.13,1.76,5.14,-0.12,0.02,-0.09,-63.96,-30.32,-6.454043.00,-8.31,1.44,5.37,-0.19,0.05,-0.03,-65.54,-28.74,-3.574093.00,-8.07,2.00,4.73,-0.09,0.14,0.09,-65.54,-28.74,-3.574143.00,-8.22,1.48,4.86,-0.13,0.06,0.05,-64.84,-28.74,-5.274193.00,-8.29,2.09,4.80,0.01,0.08,0.20,-64.84,-28.74,-5.274243.00,-8.00,1.46,5.05,0.11,0.07,0.17,-64.49,-28.38,-4.934293.00,-8.21,1.69,5.11,0.22,0.07,0.24,-64.49,-28.38,-4.934343.00,-8.18,2.50,4.59,0.38,0.10,0.30,-64.49,-28.38,-4.934393.00,-8.00,1.93,4.55,0.37,0.08,0.24,-65.01,-31.38,-2.724444.00,-7.60,2.27,4.24,0.68,0.06,0.31,-65.01,-31.38,-2.724494.00,-8.47,3.59,4.88,0.78,0.02,0.49,-65.01,-31.38,-2.724544.00,-8.41,3.89,3.91,0.29,-0.12,0.12,-63.61,-34.91,-2.044594.00,-7.91,2.98,4.35,0.19,-0.12,-0.09,-63.61,-34.91,-2.044644.00,-8.31,3.57,4.62,0.14,-0.13,-0.08,-63.08,-33.67,-1.194694.00,-7.90,3.24,4.09,0.08,-0.12,-0.14,-63.08,-33.67,-1.194744.00,-8.04,2.53,4.55,-0.25,-0.17,-0.49,-63.26,-34.91,-1.364794.00,-8.33,3.68,4.69,-0.32,-0.23,-0.27,-63.26,-34.91,-1.364844.00,-8.36,2.13,4.90,-0.15,-0.05,-0.40,-63.26,-34.91,-1.364894.00,-8.53,3.32,4.90,-0.13,0.05,-0.35,-63.96,-31.38,-3.744944.00,-7.94,1.63,4.29,-0.27,0.09,-0.68,-63.96,-31.38,-3.744994.00,-8.54,3.28,4.66,-0.19,-0.01,-0.49,-63.96,-31.38,-3.745044.00,-8.49,1.91,5.57,0.18,0.08,-0.54,-67.12,-26.44,-2.725094.00,-8.43,0.39,5.73,0.08,0.12,-0.83,-67.12,-26.44,-2.725144.00,-8.48,1.47,4.81,0.01,0.13,-0.64,-67.12,-24.68,-3.065194.00,-8.37,2.24,4.21,-0.08,0.09,-0.46,-67.12,-24.68,-3.065244.00,-7.97,-0.68,5.02,0.07,0.09,-0.42,-67.12,-24.68,-3.065295.00,-8.27,-1.00,4.38,-0.23,-0.06,-0.36,-66.42,-19.39,-1.365345.00,-8.98,1.15,4.67,0.07,-0.14,0.26,-66.42,-19.39,-1.365395.00,-8.57,0.95,4.53,0.11,-0.15,0.14,-66.77,-20.80,-2.385445.00,-8.26,0.11,4.53,-0.04,-0.13,0.35,-66.77,-20.80,-2.385495.00,-8.35,1.32,4.11,0.13,-0.05,0.51,-66.77,-20.80,-2.385545.00,-8.57,2.22,3.54,0.16,0.08,0.66,-66.59,-22.74,-3.235595.00,-8.75,1.44,4.92,0.08,-0.01,0.25,-66.59,-22.74,-3.235646.00,-8.65,1.67,4.64,-0.25,0.01,0.06,-66.42,-26.09,-2.725696.00,-8.62,1.56,3.58,-0.28,0.15,0.22,-66.42,-26.09,-2.725746.00,-8.33,0.64,4.64,-0.26,0.16,-0.00,-66.42,-26.09,-2.725796.00,-8.93,1.62,4.41,-0.28,0.21,0.11,-66.59,-24.15,-1.535846.00,-8.44,1.00,4.47,-0.39,0.19,0.04,-66.59,-24.15,-1.535897.00,-8.67,1.11,4.72,-0.31,0.21,0.22,-65.36,-26.09,-1.705947.00,-8.19,0.37,4.68,-0.24,0.15,0.19,-65.36,-26.09,-1.705997.00,-8.59,1.42,5.04,-0.09,0.02,0.28,-65.36,-26.09,-1.706047.00,-8.56,1.89,4.07,0.21,0.09,0.47,-64.31,-27.50,-2.726097.00,-8.31,0.91,4.32,0.32,0.04,0.18,-64.31,-27.50,-2.726147.00,-8.55,2.81,4.08,0.30,0.01,0.50,-64.49,-30.15,-0.516198.00,-8.52,2.20,4.29,0.49,0.02,0.50,-64.49,-30.15,-0.516248.00,-8.48,2.69,3.71,0.27,-0.21,0.00,-64.49,-30.15,-0.516298.00,-8.66,3.68,3.42,0.05,-0.36,-0.02,-63.78,-34.38,-1.536348.00,-8.53,3.51,4.05,-0.04,-0.19,-0.16,-63.78,-34.38,-1.536398.00,-8.23,2.30,3.57,-0.08,-0.18,-0.48,-64.31,-32.09,-3.066448.00,-8.45,2.29,4.26,-0.31,-0.20,-0.56,-64.31,-32.09,-3.066499.00,-8.40,2.07,4.21,-0.46,-0.07,-0.98,-64.31,-32.09,-3.066549.00,-8.76,2.80,4.39,-0.39,0.11,-0.53,-67.47,-27.50,-3.406599.00,-8.70,0.68,5.96,-0.02,-0.01,-0.44,-67.47,-27.50,-3.406649.00,-8.50,0.42,5.07,-0.02,0.10,-0.58,-65.72,-23.62,-3.406699.00,-8.48,0.21,4.66,0.26,0.14,-0.34,-65.72,-23.62,-3.406750.00,-8.89,1.23,4.50,0.18,0.14,-0.56,-65.72,-23.62,-3.406800.00,-9.02,1.56,4.12,-0.00,0.07,-0.68,-68.18,-20.80,-2.726850.00,-8.95,0.63,4.47,-0.19,0.18,-0.78,-68.18,-20.80,-2.726900.00,-8.44,0.44,4.75,-0.03,0.07,-0.45,-67.65,-15.69,-1.536950.00,-8.81,-0.09,4.16,0.05,0.08,0.11,-67.65,-15.69,-1.537000.00,-8.42,0.58,4.03,0.00,-0.36,0.06,-67.65,-15.69,-1.537050.00,-8.88,-0.11,4.37,-0.01,-0.03,0.15,-66.59,-15.34,-1.197101.00,-8.78,-0.55,4.45,0.12,-0.14,0.25,-66.59,-15.34,-1.197151.00,-8.33,-0.96,4.03,0.22,-0.14,0.64,-66.95,-17.10,-1.877201.00,-8.33,-0.79,4.19,0.15,-0.01,0.35,-66.95,-17.10,-1.877251.00,-9.14,1.23,4.69,-0.09,0.02,0.50,-66.95,-17.10,-1.877301.00,-8.98,1.62,4.55,-0.13,0.04,0.50,-67.47,-21.16,-3.407352.00,-8.90,1.21,4.07,-0.30,0.04,0.25,-67.47,-21.16,-3.407402.00,-8.55,0.20,4.43,-0.36,0.06,-0.00,-66.24,-20.27,-2.557452.00,-8.80,0.69,3.65,-0.32,0.21,0.23,-66.24,-20.27,-2.557502.00,-8.38,-0.05,3.41,-0.32,0.12,0.01,-66.24,-20.27,-2.557553.00,-8.53,0.19,4.09,-0.30,0.12,0.18,-67.30,-23.45,-1.537603.00,-8.73,1.20,4.18,-0.20,0.04,0.27,-67.30,-23.45,-1.537653.00,-8.58,1.26,4.01,0.06,0.16,0.51,-68.18,-23.98,-0.687703.00,-8.50,0.15,4.77,0.07,0.03,0.20,-68.18,-23.98,-0.687754.00,-8.80,2.01,3.73,0.23,0.09,0.59,-68.18,-23.98,-0.687804.00,-8.89,2.03,3.84,0.07,-0.03,0.36,-67.12,-26.80,0.007854.00,-9.01,2.32,4.12,0.16,-0.12,0.43,-67.12,-26.80,0.007904.00,-8.71,1.45,4.21,0.17,-0.16,-0.06,-65.36,-29.97,-1.027954.00,-9.09,2.10,4.73,0.18,-0.18,0.03,-65.36,-29.97,-1.028005.00,-8.93,1.70,4.46,-0.10,-0.32,-0.29,-66.07,-29.62,-1.368055.00,-8.57,1.13,4.09,-0.27,-0.23,-0.60,-66.07,-29.62,-1.368105.00,-8.93,2.29,4.89,-0.22,-0.10,-0.57,-66.07,-29.62,-1.368156.00,-8.63,-0.25,4.69,-0.09,0.02,-0.53,-66.42,-26.44,-4.088206.00,-8.66,-0.27,4.87,0.02,0.02,-0.69,-66.42,-26.44,-4.088256.00,-8.62,0.57,3.82,-0.16,0.09,-0.54,-66.42,-26.44,-4.088306.00,-8.41,-0.17,3.52,-0.06,0.19,-0.57,-68.35,-22.04,-2.898357.00,-8.83,-0.36,4.28,-0.03,0.14,-0.61,-68.35,-22.04,-2.898407.00,-8.79,0.61,4.66,-0.19,0.18,-0.64,-66.24,-19.92,-2.558457.00,-8.76,-0.66,4.48,-0.16,0.01,-0.53,-66.24,-19.92,-2.558508.00,-8.40,-1.18,3.38,-0.14,0.15,-0.72,-67.47,-16.22,-1.368558.00,-8.80,0.44,4.43,-0.03,0.05,-0.35,-67.47,-16.22,-1.368608.00,-8.71,-2.15,4.08,-0.11,0.09,-0.57,-67.47,-16.22,-1.368659.00,-8.87,0.22,4.37,-0.09,0.12,-0.43,-67.65,-13.22,-0.178709.00,-8.60,-1.62,3.45,0.01,0.11,-0.13,-67.65,-13.22,-0.178759.00,-8.42,-1.56,3.70,-0.17,-0.15,-0.16,-67.65,-13.22,-0.178810.00,-8.91,-1.80,3.70,-0.27,-0.08,0.03,-66.07,-11.99,-1.368860.00,-8.88,-1.80,3.79,-0.06,-0.21,0.25,-66.07,-11.99,-1.368910.00,-8.81,-0.35,4.22,0.21,-0.28,0.85,-68.53,-12.69,-1.368961.00,-8.94,-0.29,4.00,-0.11,-0.11,0.27,-68.53,-12.69,-1.369011.00,-8.98,-0.26,3.84,-0.04,0.00,0.76,-66.77,-15.87,-2.389061.00,-9.14,0.93,3.88,-0.11,-0.04,0.62,-66.77,-15.87,-2.389112.00,-9.00,0.78,4.15,-0.21,-0.00,0.37,-66.77,-15.87,-2.389162.00,-8.70,-0.20,4.01,-0.18,-0.02,0.13,-67.82,-17.98,-3.069213.00,-8.83,0.16,4.18,-0.25,0.03,0.03,-67.82,-17.98,-3.069264.00,-8.97,-0.82,4.65,-0.22,0.06,0.05,-67.82,-17.98,-3.069314.00,-8.74,0.14,3.35,-0.13,0.16,0.25,-66.95,-18.86,-2.559364.00,-8.76,-0.44,4.20,-0.20,-0.07,0.08,-66.95,-18.86,-2.559415.00,-8.87,-0.71,4.13,-0.09,0.06,0.25,-66.59,-20.63,-1.539465.00,-8.85,0.26,3.79,-0.14,0.07,0.31,-66.59,-20.63,-1.539515.00,-8.90,0.72,4.26,0.11,0.02,0.62,-66.59,-20.63,-1.539566.00,-8.85,0.69,4.51,0.18,-0.05,0.43,-67.47,-21.16,-1.709616.00,-8.63,0.35,3.93,0.37,0.01,0.64,-67.47,-21.16,-1.709667.00,-8.47,0.43,3.58,0.17,-0.05,0.17,-65.54,-26.97,-0.859717.00,-8.76,1.24,4.26,0.27,-0.22,0.24,-65.54,-26.97,-0.859767.00,-8.72,1.46,3.93,0.25,-0.17,0.11,-66.07,-27.50,-2.049818.00,-8.93,1.42,3.97,0.08,-0.20,-0.17,-66.07,-27.50,-2.049868.00,-8.66,0.43,4.34,-0.17,-0.16,-0.53,-66.07,-27.50,-2.049919.00,-9.01,0.32,4.81,-0.38,-0.17,-0.80,-65.72,-25.03,-2.729969.00,-8.73,-0.40,3.60,-0.14,0.08,-0.67,-65.72,-25.03,-2.7210019.00,-8.78,0.37,4.32,-0.18,0.14,-0.59,-65.72,-25.03,-2.7210070.00,-8.65,0.00,3.90,-0.08,0.06,-0.33,-67.12,-20.80,-3.7410120.00,-8.79,-0.46,4.46,0.06,0.08,-0.22,-67.12,-20.80,-3.7410171.00,-9.02,-0.10,4.26,-0.17,0.31,-0.40,-66.77,-18.69,-3.0610221.00,-8.57,-0.66,4.24,-0.17,0.19,-0.54,-66.77,-18.69,-3.0610271.00,-8.99,-0.37,4.76,0.07,0.09,-0.26,-67.30,-15.34,-2.5510322.00,-8.51,-1.48,3.56,-0.08,0.29,-0.61,-67.30,-15.34,-2.5510372.00,-9.01,-1.37,4.48,0.02,0.15,-0.53,-67.30,-15.34,-2.5510423.00,-8.61,-2.02,3.48,0.00,0.19,-0.67,-67.65,-14.28,0.8510473.00,-8.24,-2.30,3.32,0.03,0.20,-0.69,-67.65,-14.28,0.8510524.00,-8.60,-1.99,3.48,0.11,0.04,-0.33,-67.65,-14.28,0.8510574.00,-8.77,-3.95,3.78,-0.00,0.09,-0.60,-67.82,-10.93,1.3610625.00,-8.33,-1.20,3.64,0.02,0.01,-0.13,-67.82,-10.93,1.3610675.00,-8.38,-2.97,3.71,-0.02,0.04,-0.09,-66.59,-7.23,0.5110726.00,-8.58,-3.21,2.99,-0.00,-0.07,0.32,-66.59,-7.23,0.5110776.00,-9.02,-1.72,3.64,0.24,-0.15,0.61,-66.59,-8.29,-1.1910827.00,-8.48,-2.44,3.09,0.03,-0.12,0.63,-66.59,-8.29,-1.1910877.00,-9.16,-0.97,3.23,0.01,-0.01,0.69,-66.59,-8.29,-1.1910927.00,-9.09,-0.61,3.29,-0.07,0.00,0.50,-67.12,-13.75,-1.7010978.00,-8.54,-1.32,3.18,-0.22,-0.01,0.23,-67.12,-13.75,-1.7011029.00,-9.04,-0.81,3.38,-0.37,-0.02,0.17,-68.00,-14.28,-1.8711079.00,-8.94,-1.00,4.32,-0.27,-0.10,0.19,-68.00,-14.28,-1.8711129.00,-9.05,-0.62,3.98,-0.23,0.10,0.28,-68.00,-14.28,-1.8711180.00,-8.47,-1.44,3.55,-0.17,0.08,0.19,-66.59,-15.69,-1.1911231.00,-8.79,-0.67,3.66,-0.19,-0.02,0.26,-66.59,-15.69,-1.1911281.00,-8.86,-0.81,4.30,-0.13,-0.13,0.22,-68.53,-19.04,-1.0211332.00,-8.86,-0.04,3.56,-0.20,-0.01,0.23,-68.53,-19.04,-1.0211382.00,-9.01,-0.96,4.38,-0.28,-0.07,0.12,-68.53,-19.04,-1.0211433.00,-8.99,0.50,3.25,-0.02,0.08,0.48,-66.59,-17.10,-0.8511483.00,-8.66,-1.19,3.97,0.10,0.02,0.33,-66.59,-17.10,-0.8511534.00,-8.87,-0.44,3.72,0.25,-0.02,0.31,-68.18,-21.86,-0.3411584.00,-8.92,0.49,3.36,0.14,-0.05,0.33,-68.18,-21.86,-0.3411635.00,-8.88,0.67,3.92,0.31,-0.26,0.37,-68.18,-21.86,-0.3411685.00,-9.47,0.52,4.48,0.21,-0.19,0.12,-66.95,-24.51,-1.1911736.00,-9.23,0.74,4.50,0.24,-0.15,0.10,-66.95,-24.51,-1.1911787.00,-9.10,0.87,3.57,0.11,-0.15,0.01,-66.59,-24.51,-0.1711837.00,-8.99,0.63,4.50,-0.19,-0.27,-0.47,-66.59,-24.51,-0.1711888.00,-9.02,0.19,4.36,-0.06,-0.14,-0.32,-66.59,-24.51,-0.1711938.00,-9.19,1.00,4.61,-0.06,-0.02,-0.48,-67.47,-22.21,-3.7411989.00,-8.82,-0.42,4.37,-0.12,0.07,-0.66,-67.47,-22.21,-3.7412039.00,-8.71,-1.14,4.05,-0.03,0.00,-0.42,-67.82,-17.63,-1.7012090.00,-8.79,-1.52,3.87,-0.16,0.10,-0.43,-67.82,-17.63,-1.7012140.00,-8.87,-1.32,4.17,-0.13,0.15,-0.37,-67.82,-17.63,-1.7012191.00,-9.10,0.29,4.86,0.05,-0.07,-0.04,-66.07,-16.57,-2.7212242.00,-8.88,-1.06,4.24,-0.05,0.11,-0.29,-66.07,-16.57,-2.7212292.00,-8.82,-1.27,3.94,-0.05,0.13,-0.15,-68.00,-15.34,-1.1912343.00,-8.75,-1.32,3.51,-0.18,0.19,-0.26,-68.00,-15.34,-1.1912394.00,-8.82,-1.49,3.42,0.06,-0.03,-0.19,-68.00,-15.34,-1.1912444.00,-8.70,-1.89,4.15,0.01,0.05,-0.31,-67.12,-13.75,-1.0212495.00,-9.13,-1.49,3.60,0.03,0.05,-0.37,-67.12,-13.75,-1.0212545.00,-9.23,-1.11,3.98,-0.08,0.10,-0.54,-66.77,-11.64,-0.6812596.00,-8.62,-0.91,3.80,0.08,0.14,-0.28,-66.77,-11.64,-0.6812647.00,-8.46,-2.28,4.02,0.04,0.06,-0.29,-66.77,-11.64,-0.6812697.00,-8.83,-1.86,3.95,-0.07,-0.02,-0.11,-67.47,-11.28,0.3412748.00,-8.74,-1.96,3.43,0.01,-0.09,0.05,-67.47,-11.28,0.3412798.00,-8.20,-2.29,3.54,0.07,-0.27,0.34,-66.24,-10.40,0.5112849.00,-9.22,-1.28,4.20,0.20,-0.26,0.62,-66.24,-10.40,0.5112900.00,-8.39,-2.34,3.10,0.05,-0.21,0.73,-66.24,-10.40,0.5112950.00,-8.71,-1.89,3.57,-0.03,-0.09,0.04,-66.24,-12.87,-1.8713001.00,-8.91,-1.21,3.49,-0.04,-0.03,0.37,-66.24,-12.87,-1.8713051.00,-8.83,-1.41,3.80,-0.14,0.05,0.19,-66.07,-16.22,-1.3613102.00,-8.83,-1.08,3.80,-0.23,0.15,0.32,-66.07,-16.22,-1.3613152.00,-8.79,-1.20,3.87,-0.15,-0.02,0.28,-66.07,-17.63,-0.3413203.00,-8.66,-1.99,3.98,-0.27,0.04,0.19,-66.07,-17.63,-0.3413254.00,-9.10,-0.61,4.06,-0.27,-0.03,0.27,-66.07,-17.63,-0.3413304.00,-8.86,-1.36,4.00,-0.18,0.04,0.27,-65.72,-18.33,-1.3613355.00,-8.61,-1.85,3.54,-0.27,-0.00,0.22,-65.72,-18.33,-1.3613406.00,-9.04,0.20,3.83,-0.19,-0.03,0.29,-65.72,-18.33,-1.3613456.00,-8.88,-0.55,3.93,-0.08,0.07,0.37,-66.24,-21.33,-1.1913507.00,-8.79,-0.44,3.53,-0.07,0.03,0.24,-66.24,-21.33,-1.1913557.00,-8.51,-0.15,3.42,0.21,0.05,0.57,-65.19,-21.33,-0.1713608.00,-8.94,-0.04,4.25,0.19,-0.10,0.36,-65.19,-21.33,-0.1713659.00,-9.08,0.68,4.24,0.24,-0.14,0.23,-66.07,-25.39,-1.0213709.00,-8.53,0.27,3.81,0.30,-0.17,0.20,-66.07,-25.39,-1.0213760.00,-8.76,0.68,3.61,0.20,-0.20,0.04,-66.07,-25.39,-1.0213811.00,-9.22,0.11,4.55,-0.11,-0.22,-0.33,-66.77,-26.09,-1.3613861.00,-9.01,1.58,4.30,-0.16,-0.16,-0.23,-66.77,-26.09,-1.3613912.00,-9.17,0.14,4.73,-0.14,-0.06,-0.40,-66.77,-25.39,-3.0613963.00,-8.63,-0.63,3.38,-0.14,0.06,-0.56,-66.77,-25.39,-3.0614013.00,-9.14,0.11,4.41,-0.21,0.13,-0.55,-66.77,-25.39,-3.0614064.00,-8.36,-2.41,3.63,-0.08,0.19,-0.40,-66.95,-20.63,-4.2514115.00,-8.82,-1.48,3.53,-0.27,0.28,-0.38,-66.95,-20.63,-4.2514165.00,-9.10,-0.18,3.81,-0.05,0.04,0.02,-66.77,-18.69,-1.7014216.00,-8.78,-0.96,3.50,-0.16,0.12,-0.20,-66.77,-18.69,-1.7014267.00,-8.77,-1.40,3.54,-0.18,0.14,-0.20,-66.77,-18.69,-1.7014317.00,-8.56,-2.72,2.40,-0.15,0.23,-0.24,-67.30,-19.22,-1.5314368.00,-9.01,-0.37,2.98,-0.28,0.21,-0.42,-67.30,-19.22,-1.5314419.00,-8.43,-3.42,2.46,-0.20,0.18,-0.56,-67.30,-17.10,-0.1714469.00,-9.15,0.08,4.10,0.08,0.06,-0.00,-67.30,-17.10,-0.1714520.00,-9.02,-2.63,2.99,-0.14,0.17,-0.61,-67.30,-17.10,-0.1714571.00,-8.54,-4.44,2.33,0.02,0.13,-0.46,-68.00,-14.28,0.8514621.00,-8.85,-0.83,3.58,0.13,0.07,-0.05,-68.00,-14.28,0.8514672.00,-8.86,-2.37,3.26,-0.27,-0.19,-0.30,-66.95,-11.46,-0.1714723.00,-8.69,-3.55,3.48,-0.04,-0.22,-0.03,-66.95,-11.46,-0.1714773.00,-8.58,-2.78,3.00,0.00,-0.18,0.04,-66.95,-11.46,-0.1714824.00,-9.19,-2.16,3.74,0.18,-0.30,0.41,-66.59,-12.16,-0.5114875.00,-8.77,-3.07,3.01,0.12,-0.19,0.56,-66.59,-12.16,-0.5114925.00,-8.78,-2.04,3.44,0.03,-0.15,0.43,-66.95,-14.63,-1.1914976.00,-9.07,-1.63,3.64,-0.19,-0.12,0.22,-66.95,-14.63,-1.1915027.00,-9.19,-0.39,3.88,-0.05,-0.16,0.66,-66.95,-14.63,-1.1915078.00,-9.14,-1.05,3.54,-0.10,-0.03,0.39,-66.77,-17.98,-1.3615128.00,-8.71,-1.89,3.78,-0.17,0.04,0.17,-66.77,-17.98,-1.3615179.00,-8.47,-1.17,3.46,-0.11,0.19,0.40,-66.95,-20.27,-0.1715230.00,-8.76,-1.28,3.53,-0.27,0.04,0.19,-66.95,-20.27,-0.1715281.00,-8.89,-0.62,3.55,-0.25,0.13,0.42,-66.95,-20.27,-0.1715331.00,-8.84,-0.65,3.02,-0.17,0.06,0.35,-66.07,-20.80,0.0015382.00,-9.08,-1.05,4.14,-0.26,0.01,0.29,-66.07,-20.80,0.0015433.00,-9.08,0.20,3.43,-0.05,-0.03,0.56,-65.72,-22.92,-0.3415483.00,-8.99,0.22,3.60,0.13,-0.03,0.42,-65.72,-22.92,-0.3415534.00,-9.02,0.69,3.13,0.26,0.01,0.50,-65.54,-26.62,-0.1715585.00,-9.71,2.10,4.43,0.43,-0.19,0.75,-65.54,-26.62,-0.1715636.00,-9.29,1.13,3.69,0.23,-0.36,0.20,-65.54,-26.62,-0.1715686.00,-8.61,0.44,3.96,0.18,-0.35,-0.04,-67.47,-27.85,-1.3615738.00,-8.80,0.35,3.99,0.09,-0.19,-0.13,-67.47,-27.85,-1.3615788.00,-9.16,1.23,3.45,-0.04,-0.20,-0.15,-67.47,-27.85,-1.3615839.00,-9.18,0.15,4.57,-0.27,-0.26,-0.65,-65.19,-29.44,-3.2315890.00,-9.06,0.46,3.43,-0.12,-0.03,-0.48,-65.19,-29.44,-3.2315941.00,-8.67,-0.70,3.74,-0.13,0.11,-0.72,-65.01,-24.68,-3.4015992.00,-8.81,-0.52,4.07,-0.05,0.11,-0.50,-65.01,-24.68,-3.4016042.00,-9.39,0.25,4.84,0.06,-0.02,-0.12,-66.42,-21.16,-3.7416093.00,-8.90,-0.88,3.94,-0.19,0.15,-0.22,-66.42,-21.16,-3.7416144.00,-8.86,-0.93,3.41,-0.15,0.04,-0.21,-66.42,-21.16,-3.7416195.00,-8.82,-0.90,4.52,-0.11,0.12,-0.22,-66.42,-21.16,-3.7416246.00,-8.95,-0.91,4.18,-0.09,0.31,-0.29,-66.42,-21.16,-3.7416296.00,-8.99,-0.90,3.36,-0.11,0.36,-0.51,-66.42,-17.98,-1.7016347.00,-9.01,-1.32,3.00,-0.21,0.49,-0.84,-66.42,-17.98,-1.7016398.00,-8.37,-1.39,3.13,-0.13,0.31,-0.85,-66.42,-17.98,-1.7016449.00,-8.97,-1.19,4.38,0.07,0.04,-0.51,-67.12,-13.05,1.7016499.00,-8.59,-1.61,3.16,0.04,-0.00,-0.38,-67.12,-13.05,1.7016550.00,-8.52,-4.51,2.82,-0.12,0.03,-0.50,-66.77,-9.87,0.3416601.00,-8.72,-3.34,2.43,-0.11,-0.22,0.14,-66.77,-9.87,0.3416652.00,-8.75,-2.87,3.41,0.20,-0.31,0.41,-66.77,-9.87,0.3416703.00,-9.29,-1.45,3.74,0.07,-0.34,0.56,-66.59,-12.52,-0.8516753.00,-8.87,-1.89,3.38,0.02,-0.24,0.60,-66.59,-12.52,-0.8516804.00,-8.83,-1.39,3.28,-0.10,-0.05,0.35,-65.72,-17.28,-1.7016855.00,-8.87,-2.02,4.01,-0.22,-0.03,0.29,-65.72,-17.28,-1.7016906.00,-8.99,-1.07,3.68,-0.28,-0.02,0.29,-65.72,-17.28,-1.7016957.00,-8.78,-1.59,2.59,-0.28,0.01,0.22,-66.24,-17.81,-3.2317008.00,-9.18,-0.98,3.91,-0.15,-0.01,0.35,-66.24,-17.81,-3.2317059.00,-8.77,-1.87,3.29,-0.25,-0.03,0.15,-67.47,-18.33,-3.0617110.00,-8.88,-0.77,3.45,-0.14,0.04,0.42,-67.47,-18.33,-3.0617161.00,-9.08,-0.91,3.11,-0.05,0.08,0.42,-67.47,-18.33,-3.0617212.00,-9.03,-1.06,3.64,-0.16,-0.12,0.27,-67.30,-21.33,-1.5317262.00,-9.20,-0.58,3.76,-0.10,-0.12,0.47,-67.30,-21.33,-1.5317313.00,-8.83,-0.72,3.56,-0.42,-0.22,0.47,-66.59,-24.15,-2.2117364.00,-9.03,1.44,4.39,0.13,-0.29,0.79,-66.59,-24.15,-2.2117415.00,-8.59,-0.27,2.93,0.17,-0.14,0.51,-66.42,-26.44,-3.7417466.00,-9.08,0.51,4.47,0.33,-0.28,0.54,-66.42,-26.44,-3.7417517.00,-8.59,0.71,4.00,0.37,-0.20,0.44,-66.42,-26.44,-3.7417568.00,-9.26,0.52,4.17,0.45,-0.19,0.25,-64.49,-30.15,-4.5917619.00,-9.01,1.41,4.00,0.24,-0.21,-0.03,-64.49,-30.15,-4.5917670.00,-8.86,1.66,4.26,-0.11,-0.24,-0.36,-64.49,-30.15,-4.5917720.00,-8.80,0.73,3.90,-0.13,-0.11,-0.60,-65.01,-29.27,-4.0817771.00,-9.00,1.19,4.09,-0.10,0.09,-0.72,-65.01,-29.27,-4.0817822.00,-8.91,-0.50,4.07,-0.22,0.27,-0.74,-65.01,-25.74,-4.7617873.00,-8.80,-0.67,3.55,-0.20,0.30,-0.51,-65.01,-25.74,-4.7617924.00,-8.83,-0.57,3.08,-0.15,0.32,-0.30,-66.59,-23.09,-2.2117975.00,-9.31,0.18,3.79,-0.30,0.14,-0.29,-66.59,-23.09,-2.2118026.00,-8.82,-1.23,3.73,-0.28,0.13,-0.33,-66.59,-23.09,-2.2118077.00,-9.06,-0.93,4.08,-0.08,0.29,-0.35,-68.00,-19.57,-4.2518128.00,-8.83,-1.73,2.66,-0.16,0.44,-0.68,-68.00,-19.57,-4.2518179.00,-8.28,-2.53,2.73,-0.22,0.25,-0.75,-67.47,-19.75,-2.3818230.00,-8.92,-1.45,3.38,0.04,0.16,-0.53,-67.47,-19.75,-2.3818281.00,-8.82,-3.29,2.44,-0.13,0.20,-0.78,-67.47,-19.75,-2.3818332.00,-8.68,-2.67,2.53,-0.19,0.19,-0.74,-67.65,-12.87,-1.8718383.00,-8.46,-3.37,2.49,-0.12,-0.09,-0.27,-67.65,-12.87,-1.8718434.00,-8.37,-3.01,2.43,-0.11,-0.48,0.13,-65.19,-10.05,-0.8518485.00,-8.99,-3.00,3.23,-0.12,-0.41,0.25,-65.19,-10.05,-0.8518536.00,-8.44,-3.64,2.85,0.02,-0.38,0.55,-65.19,-10.05,-0.8518587.00,-8.80,-1.95,4.02,0.11,-0.18,0.60,-66.95,-11.46,-4.2518638.00,-8.75,-2.57,3.33,-0.08,-0.00,0.27,-66.95,-11.46,-4.2518689.00,-8.64,-2.14,3.25,-0.02,0.08,0.41,-66.77,-14.81,-3.7418740.00,-8.86,-2.08,3.60,-0.21,-0.04,0.47,-66.77,-14.81,-3.7418791.00,-8.90,-1.24,3.40,-0.14,0.10,0.40,-66.77,-14.81,-3.7418842.00,-8.75,-1.78,3.91,-0.25,-0.02,0.42,-67.65,-18.86,-2.5518893.00,-9.19,-0.25,3.56,-0.08,0.04,0.46,-67.65,-18.86,-2.5518944.00,-8.97,-1.28,3.84,-0.09,0.01,0.39,-65.89,-22.39,-2.5518995.00,-9.21,-0.08,3.28,-0.00,-0.03,0.49,-65.89,-22.39,-2.5519046.00,-9.31,-0.26,3.84,-0.52,-0.19,0.34,-65.89,-22.39,-2.5519097.00,-9.30,-0.20,3.77,-0.01,0.15,0.52,-66.07,-23.27,-5.7719147.00,-9.09,-0.31,3.52,-0.01,-0.01,0.50,-66.07,-23.27,-5.7719198.00,-9.08,-0.27,3.18,0.22,-0.08,0.43,-65.72,-25.74,-4.4219250.00,-9.15,0.85,3.92,0.28,-0.21,0.51,-65.72,-25.74,-4.4219301.00,-8.96,-0.01,3.58,0.29,-0.21,0.31,-66.42,-28.21,-4.0819351.00,-8.80,0.11,3.54,0.29,-0.28,0.33,-66.42,-28.21,-4.0819402.00,-9.20,0.86,3.84,0.10,-0.32,0.02,-66.42,-28.21,-4.0819454.00,-8.87,0.57,3.97,-0.18,-0.34,-0.26,-65.72,-29.97,-6.1119505.00,-8.81,-0.56,4.86,-0.28,-0.13,-0.63,-65.72,-29.97,-6.1119556.00,-8.95,0.34,3.99,-0.12,0.04,-0.58,-66.07,-26.44,-7.1319607.00,-9.28,-0.43,5.02,-0.06,0.08,-0.55,-66.07,-26.44,-7.1319658.00,-9.18,0.72,5.01,-0.16,0.09,-0.36,-66.07,-26.44,-7.1319709.00,-8.88,-1.31,4.81,-0.08,0.15,-0.25,-66.24,-22.39,-6.9619760.00,-8.95,-1.54,3.88,-0.05,0.21,-0.01,-66.24,-22.39,-6.9619811.00,-9.02,-1.33,3.84,-0.15,0.34,-0.08,-66.77,-21.16,-4.7619862.00,-8.84,-1.55,2.83,-0.15,0.14,-0.16,-66.77,-21.16,-4.7619913.00,-9.20,-0.87,3.49,-0.25,0.14,-0.20,-66.77,-21.16,-4.7619964.00,-8.65,-1.74,2.78,-0.07,0.30,-0.34,-68.00,-20.27,-3.5720015.00,-9.07,-1.01,4.04,-0.15,0.26,-0.37,-68.00,-20.27,-3.5720066.00,-9.07,-0.94,3.28,0.02,0.22,-0.31,-66.59,-18.51,-2.2120118.00,-8.89,-2.15,3.15,-0.01,0.10,-0.42,-66.59,-18.51,-2.2120169.00,-8.75,-3.26,2.95,-0.06,0.04,-0.44,-66.59,-18.51,-2.2120220.00,-9.10,-1.80,3.20,-0.09,-0.08,-0.31,-68.18,-15.87,-2.3820271.00,-8.65,-2.02,2.22,-0.04,-0.00,-0.15,-68.18,-15.87,-2.3820322.00,-8.68,-3.04,2.63,-0.11,-0.11,-0.13,-68.35,-13.93,-1.5320373.00,-8.99,-2.36,2.64,-0.07,-0.23,0.04,-68.35,-13.93,-1.5320424.00,-8.64,-2.55,2.63,0.01,-0.35,0.16,-65.89,-13.22,-3.9120475.00,-8.99,-3.05,3.49,-0.03,-0.36,0.22,-65.89,-13.22,-3.9120526.00,-8.86,-1.87,3.29,0.07,-0.34,0.40,-65.89,-13.22,-3.9120577.00,-8.91,-1.99,3.87,0.01,-0.20,0.27,-66.95,-16.40,-5.6120628.00,-8.92,-1.48,3.68,0.08,-0.05,0.48,-66.95,-16.40,-5.6120679.00,-9.15,-0.86,3.81,0.09,-0.22,0.59,-66.07,-17.98,-7.1320730.00,-9.01,-1.26,3.92,-0.02,-0.13,0.34,-66.07,-17.98,-7.1320781.00,-8.79,-2.26,4.28,0.18,0.05,0.30,-66.07,-17.98,-7.1320832.00,-8.76,-1.63,3.85,0.03,0.01,0.14,-67.30,-21.68,-6.6220883.00,-8.82,-1.73,3.64,-0.06,0.01,0.26,-67.30,-21.68,-6.6220934.00,-8.43,-1.96,3.86,0.10,0.02,0.30,-67.30,-21.68,-6.6220985.00,-8.86,-0.94,3.29,-0.06,0.05,0.21,-66.77,-22.21,-5.4421037.00,-8.95,-0.69,4.17,0.14,-0.05,0.28,-66.77,-22.21,-5.4421088.00,-8.98,-1.39,3.30,0.20,-0.25,0.24,-66.07,-24.33,-6.4521139.00,-9.74,-0.11,2.40,-0.08,-1.39,-0.19,-66.07,-24.33,-6.4521190.00,-8.03,-0.45,4.32,-0.34,-1.79,-0.26,-64.84,-24.51,-12.7421241.00,-6.75,-0.98,7.84,-0.10,-0.87,0.03,-64.84,-24.51,-12.7421292.00,-7.32,-0.77,6.99,0.10,-0.17,0.01,-64.84,-24.51,-12.7421343.00,-8.49,-1.09,4.67,0.15,-0.06,-0.06,-62.38,-24.51,-16.1421394.00,-8.46,-1.15,5.09,-0.03,-0.35,0.11,-62.38,-24.51,-16.1421445.00,-7.28,0.19,6.86,-0.29,-0.68,0.23,-59.21,-24.15,-18.5121496.00,-7.15,-0.59,6.59,0.06,-0.32,0.02,-59.21,-24.15,-18.5121547.00,-7.00,-1.25,8.53,0.48,0.16,-0.24,-59.21,-24.15,-18.5121598.00,-8.35,-0.95,4.00,-0.07,0.79,-0.76,-61.15,-25.39,-19.0221649.00,-8.61,-2.87,5.12,-0.10,0.38,-0.93,-61.15,-25.39,-19.0221700.00,-7.27,-1.48,5.07,0.28,0.94,-0.33,-63.61,-21.51,-14.2721752.00,-8.35,-1.10,4.77,-0.59,0.81,-1.07,-63.61,-21.51,-14.2721803.00,-8.73,-4.58,2.81,-0.58,1.10,-0.74,-65.72,-14.81,-10.8721854.00,-8.39,-1.84,2.40,-0.45,0.66,-0.08,-65.72,-14.81,-10.8721905.00,-7.75,-2.87,4.43,-0.70,-0.17,-1.10,-65.72,-14.81,-10.8721956.00,-8.03,-5.12,4.86,-0.43,0.28,-0.65,-64.66,-9.87,-7.8122007.00,-8.19,-2.41,4.15,-0.39,0.09,-0.32,-64.66,-9.87,-7.8122059.00,-7.60,-4.40,4.01,-0.35,0.14,-0.88,-63.61,-5.64,-6.4522110.00,-7.79,-3.43,3.37,-0.43,0.24,-0.47,-63.61,-5.64,-6.4522161.00,-7.45,-4.17,3.67,-0.33,0.16,-0.77,-63.61,-5.64,-6.4522212.00,-7.73,-4.66,3.48,-0.34,0.34,-0.69,-63.61,-1.76,-5.7722263.00,-7.62,-5.00,3.59,-0.73,0.46,-0.96,-63.61,-1.76,-5.7722315.00,-7.53,-5.69,2.68,-1.27,0.79,-1.08,-62.73,4.76,-0.8522366.00,-7.59,-6.64,0.21,-1.33,1.10,-0.90,-62.73,4.76,-0.8522417.00,-7.14,-6.42,-0.69,-0.71,0.80,-0.52,-62.73,4.76,-0.8522468.00,-6.51,-6.67,0.57,0.02,0.26,-0.25,-59.39,8.81,8.1522519.00,-7.22,-6.87,0.14,-0.29,0.81,-0.04,-59.39,8.81,8.1522570.00,-7.56,-6.40,-1.18,-0.51,0.81,-0.15,-58.69,10.58,11.2122621.00,-6.68,-6.83,-1.39,-0.15,0.45,-0.20,-58.69,10.58,11.2122673.00,-6.85,-6.58,-0.90,0.12,0.27,-0.03,-58.69,10.58,11.2122724.00,-6.01,-7.16,-0.28,0.21,0.24,-0.26,-58.34,10.23,14.6122775.00,-5.71,-6.96,0.36,0.33,0.55,-0.49,-58.34,10.23,14.6122826.00,-5.87,-7.32,-0.06,0.17,1.30,-0.93,-54.65,13.57,14.7822878.00,-5.37,-7.65,-1.67,-0.07,1.68,-1.08,-54.65,13.57,14.7822929.00,-4.36,-7.13,-1.95,0.20,1.43,-1.20,-54.65,13.57,14.7822980.00,-5.44,-9.16,-3.26,-0.80,1.64,-1.14,-47.27,18.51,21.9123031.00,-3.35,-7.96,-4.55,-0.72,1.34,-0.67,-47.27,18.51,21.9123082.00,-4.38,-7.78,-4.02,0.63,0.71,-0.31,-42.70,21.33,26.3323134.00,-4.54,-8.64,-3.05,-0.08,0.50,-0.31,-42.70,21.33,26.3323185.00,-4.68,-6.55,-4.55,-1.27,0.37,-0.26,-37.07,20.63,31.0823236.00,-3.06,-9.20,-5.02,-1.37,0.22,-0.28,-37.07,20.63,31.0823287.00,-5.52,-7.40,-5.80,-0.87,0.23,0.10,-37.07,20.63,31.0823338.00,-4.01,-6.20,-6.79,-1.00,0.07,-0.05,-37.07,18.16,34.4823390.00,-3.68,-8.41,-6.45,-0.89,-0.61,-0.41,-37.07,18.16,34.4823441.00,-2.76,-7.27,-5.71,-0.32,-0.61,-0.15,-38.30,13.40,36.6923492.00,-2.17,-7.66,-4.65,0.09,-0.50,-0.44,-38.30,13.40,36.6923543.00,-2.96,-6.98,-4.05,-3.72,0.23,-0.25,-38.30,13.40,36.6923595.00,-2.01,-4.62,-6.96,-4.38,0.99,-0.20,-39.36,7.40,39.7523646.00,-1.85,-3.09,-9.23,-3.42,1.55,0.50,-39.36,7.40,39.7523697.00,-1.41,-2.54,-12.71,-2.54,1.30,0.68,-33.21,-13.22,48.0723748.00,-2.19,0.20,-10.55,-1.14,0.03,0.62,-33.21,-13.22,48.0723800.00,-1.14,-1.70,-9.40,-0.48,-0.05,-0.41,-33.21,-13.22,48.0723851.00,-1.59,-1.57,-8.78,-0.40,0.32,-0.12,-32.33,-18.69,46.5423902.00,-0.51,-1.06,-10.07,-0.67,0.62,0.15,-32.33,-18.69,46.5423953.00,-0.10,-1.30,-10.59,-1.07,0.70,0.20,-28.82,-21.16,47.5624005.00,-0.64,0.61,-8.74,0.13,0.11,-0.02,-28.82,-21.16,47.5624056.00,-0.64,-0.50,-9.95,-0.03,-0.25,-0.07,-28.82,-21.16,47.5624107.00,-1.11,0.56,-9.64,-0.41,-0.03,-0.09,-29.69,-21.33,47.3924158.00,-0.53,0.58,-10.41,-0.76,0.18,-0.04,-29.69,-21.33,47.3924210.00,-0.39,0.41,-11.34,-0.41,0.34,0.17,-28.29,-25.92,49.4324261.00,0.13,0.18,-9.41,-0.14,0.31,0.79,-28.29,-25.92,49.4324312.00,-0.40,1.09,-9.72,-0.07,0.49,0.91,-28.29,-25.92,49.4324364.00,0.33,0.33,-10.28,-0.00,0.55,0.77,-26.01,-26.44,46.5424415.00,1.29,0.16,-11.23,-0.48,0.27,0.86,-26.01,-26.44,46.5424466.00,0.88,1.43,-10.43,0.15,0.00,0.61,-23.37,-27.68,48.4124518.00,0.47,1.93,-10.63,0.59,0.01,-0.09,-23.37,-27.68,48.4124569.00,0.47,-0.28,-9.96,1.98,-0.16,-0.44,-20.91,-22.39,47.7324620.00,0.55,-1.40,-10.28,0.80,-0.11,-0.28,-20.91,-22.39,47.7324671.00,-0.16,-2.56,-8.52,0.24,-0.30,0.24,-20.91,-22.39,47.7324723.00,-0.32,-0.56,-9.67,0.37,-0.04,0.49,-22.84,-17.98,48.9224774.00,0.08,-1.36,-9.42,1.06,0.30,0.14,-22.84,-17.98,48.9224825.00,0.12,-1.53,-10.21,1.28,0.02,0.06,-21.09,-13.40,48.2424877.00,-0.28,-4.18,-8.78,3.59,-0.01,-0.10,-21.09,-13.40,48.2424928.00,1.17,-1.82,-12.30,0.97,0.14,-0.38,-21.09,-13.40,48.2424980.00,-0.34,-5.07,-7.06,2.94,-0.06,-0.67,-19.15,-2.29,47.7325031.00,0.82,-7.35,-6.53,2.26,0.12,-0.59,-19.15,-2.29,47.7325082.00,1.26,-6.37,-7.84,0.39,0.09,-0.24,-17.92,7.76,43.4825134.00,1.15,-6.28,-7.91,-0.07,-0.03,0.08,-17.92,7.76,43.4825185.00,1.91,-6.37,-10.05,-0.97,-0.21,0.71,-17.92,7.76,43.4825237.00,0.25,-6.20,-6.28,0.55,-0.81,0.31,-18.80,7.93,45.6925288.00,0.90,-8.06,-4.92,-0.90,0.10,0.00,-18.80,7.93,45.6925340.00,0.22,-3.89,-7.84,-4.38,-0.16,0.06,-20.91,1.59,46.3725391.00,0.01,-2.89,-9.44,-2.00,-0.16,0.24,-20.91,1.59,46.3725443.00,0.14,-1.33,-9.78,-2.49,-0.32,0.33,-22.84,-16.22,50.2825494.00,-0.25,-0.17,-10.60,-1.74,-0.16,0.34,-22.84,-16.22,50.2825545.00,-0.13,-0.51,-10.16,0.87,0.32,0.01,-22.84,-16.22,50.2825597.00,0.10,-1.13,-10.41,0.58,0.22,-0.08,-22.67,-19.57,47.7325648.00,0.09,-1.07,-9.99,0.10,0.16,0.00,-22.67,-19.57,47.7325699.00,0.30,-1.11,-10.62,0.31,0.06,-0.02,-22.67,-19.57,47.7325751.00,0.10,-1.37,-10.19,-0.24,-0.02,-0.10,-22.49,-17.98,50.6225802.00,0.22,-0.81,-10.31,-0.50,0.10,-0.10,-22.49,-17.98,50.6225854.00,0.22,-0.82,-10.16,-0.56,-0.03,-0.36,-22.14,-17.98,53.6725905.00,0.37,-0.67,-10.14,-0.26,0.02,0.10,-22.14,-17.98,53.6725956.00,0.20,-0.37,-10.20,-0.50,-0.02,-0.01,-22.67,-20.63,56.2226008.00,0.21,-0.28,-10.02,-0.43,-0.06,-0.12,-22.67,-20.63,56.2226059.00,0.23,0.00,-10.27,-0.22,-0.06,-0.01,-22.67,-20.63,56.2226111.00,0.50,-0.12,-10.08,-0.15,-0.09,-0.01,-22.84,-22.57,57.0726162.00,0.50,0.07,-10.23,-0.06,-0.13,-0.08,-22.84,-22.57,57.0726213.00,-0.11,-0.12,-9.99,-0.11,-0.22,0.04,-21.96,-23.45,57.5826265.00,0.09,0.14,-10.21,0.07,-0.01,0.13,-21.96,-23.45,57.5826316.00,0.01,0.20,-10.12,0.08,-0.04,-0.07,-21.96,-23.45,57.5826368.00,-0.17,-0.29,-9.95,-0.24,0.06,-0.27,-23.19,-21.51,57.0726419.00,1.10,0.12,-10.53,-0.01,0.13,-0.07,-23.19,-21.51,57.0726471.00,-0.78,-0.32,-9.68,0.92,-0.27,0.10,-24.25,-22.92,58.7726522.00,0.30,-0.49,-9.79,0.03,-0.15,0.06,-24.25,-22.92,58.7726574.00,0.27,-0.31,-10.19,-0.34,0.08,0.11,-23.55,-20.80,55.7126625.00,-0.31,-0.17,-10.41,-0.42,-0.08,-0.05,-23.55,-20.80,55.7126676.00,-0.01,0.05,-10.15,-0.15,-0.12,-0.04,-23.55,-20.80,55.7126728.00,-0.06,-0.02,-10.13,-0.13,-0.08,-0.01,-25.13,-23.09,53.8426779.00,-0.01,0.06,-10.16,-0.13,-0.06,-0.05,-25.13,-23.09,53.8426831.00,-0.12,0.14,-10.24,-0.17,-0.15,-0.03,-24.78,-24.86,53.1626882.00,-0.13,0.31,-10.33,-0.14,-0.11,-0.04,-24.78,-24.86,53.1626934.00,-0.27,0.16,-10.22,0.06,-0.04,0.02,-24.78,-24.86,53.1626985.00,-0.18,0.18,-10.17,0.14,-0.06,0.02,-23.37,-24.15,52.1427037.00,-0.30,0.04,-10.08,0.01,-0.10,-0.05,-23.37,-24.15,52.1427089.00,-0.23,0.23,-10.26,-0.01,-0.04,-0.01,-26.01,-24.33,51.3027140.00,-0.36,0.03,-10.08,0.10,-0.05,0.02,-26.01,-24.33,51.3027191.00,-0.25,0.06,-10.19,-0.05,-0.04,-0.05,-26.01,-24.33,51.3027243.00,-0.34,0.24,-10.20,-0.12,-0.05,-0.02,-25.65,-23.98,51.9727294.00,-0.30,0.23,-10.19,-0.11,-0.04,-0.00,-25.65,-23.98,51.9727346.00,-0.74,0.41,-10.27,0.03,-0.10,0.16,-26.18,-24.86,54.1827397.00,-0.44,0.14,-10.19,0.19,0.08,0.21,-26.18,-24.86,54.1827448.00,-0.19,0.27,-10.21,-0.05,-0.03,-0.04,-26.01,-23.98,54.0127500.00,-0.40,0.16,-10.28,-0.26,0.04,-0.21,-26.01,-23.98,54.0127551.00,0.62,0.49,-10.17,-0.36,-0.01,-0.14,-26.01,-23.98,54.0127603.00,-1.44,0.50,-10.26,0.22,-0.14,0.00,-25.13,-24.51,52.4827654.00,-0.57,0.45,-10.20,0.09,-0.07,-0.04,-25.13,-24.51,52.4827706.00,0.26,0.42,-10.39,-0.29,0.04,-0.10,-25.65,-24.68,52.3127757.00,-0.48,0.54,-10.11,-0.21,-0.07,-0.09,-25.65,-24.68,52.3127809.00,-0.41,0.54,-10.21,-0.03,-0.02,-0.01,-25.65,-24.68,52.3127860.00,-0.40,0.56,-10.15,0.02,-0.01,-0.03,-26.53,-24.86,50.4527912.00,-0.49,0.38,-9.96,-0.02,0.05,0.01,-26.53,-24.86,50.4527963.00,-0.35,0.66,-10.28,-0.22,0.10,0.03,-25.48,-27.68,49.7728015.00,-0.25,0.60,-10.22,-0.04,0.01,-0.01,-25.48,-27.68,49.7728066.00,-0.31,0.70,-10.21,0.05,0.01,-0.05,-25.48,-27.68,49.7728118.00,-0.25,0.53,-10.19,0.04,0.02,-0.07,-24.95,-27.50,48.2428169.00,-0.26,0.51,-10.15,0.06,0.00,0.06,-24.95,-27.50,48.2428221.00,-0.28,0.70,-10.21,0.02,-0.01,0.13,-25.83,-26.97,47.0528273.00,-0.26,0.52,-10.11,0.09,0.01,-0.01,-25.83,-26.97,47.0528324.00,-0.27,0.36,-10.19,0.08,0.03,-0.01,-24.25,-27.50,47.9028376.00,-0.26,0.61,-10.22,-0.01,-0.00,-0.00,-24.25,-27.50,47.9028427.00,-0.17,0.42,-10.14,0.02,-0.01,0.00,-24.25,-27.50,47.9028480.00,-0.26,0.46,-10.15,0.01,-0.01,0.01,-23.90,-26.44,49.6028534.00,-0.21,0.49,-10.18,0.03,-0.00,-0.05,-23.90,-26.44,49.6028584.00,-0.27,0.54,-10.20,0.06,-0.01,-0.03,-23.90,-26.44,49.6028634.00,-0.21,0.24,-10.18,0.19,0.03,-0.08,-24.60,-26.44,51.6428684.00,-0.04,0.33,-10.32,0.06,-0.01,-0.03,-24.60,-26.44,51.6428734.00,-0.00,0.29,-10.23,0.17,-0.06,0.00,-26.18,-23.80,54.5228784.00,-0.42,-0.02,-10.06,0.26,0.07,0.11,-26.18,-23.80,54.5228834.00,-0.21,0.09,-10.23,-0.02,0.00,0.02,-26.36,-24.33,57.4128884.00,-0.46,0.13,-10.24,-0.29,-0.05,-0.05,-26.36,-24.33,57.4128934.00,0.26,0.08,-9.59,-0.22,-0.21,-0.17,-26.36,-24.33,57.4128984.00,0.12,0.39,-10.19,0.03,0.02,0.07,-25.65,-26.09,55.0329034.00,-0.28,0.26,-10.35,0.47,0.07,0.20,-25.65,-26.09,55.0329084.00,-0.15,0.01,-10.11,0.31,-0.05,0.21,-25.65,-26.09,55.0329134.00,-0.36,0.03,-10.22,0.04,0.01,0.12,-25.48,-22.04,58.2629184.00,-0.13,-0.03,-10.18,-0.16,-0.06,-0.07,-25.48,-22.04,58.2629234.00,-0.06,-0.00,-10.17,-0.38,-0.13,-0.08,-25.65,-23.27,55.3729284.00,-0.34,0.48,-10.20,-0.50,-0.04,0.03,-25.65,-23.27,55.3729334.00,-0.45,0.54,-10.16,-0.03,0.07,0.05,-24.07,-25.92,54.1829385.00,-0.14,0.54,-10.24,-0.09,0.01,-0.06,-24.07,-25.92,54.1829435.00,-0.26,0.52,-10.16,0.01,-0.03,-0.06,-24.07,-25.92,54.1829485.00,-0.28,0.58,-10.22,0.04,-0.01,-0.00,-25.48,-25.21,53.8429535.00,-0.21,0.39,-10.22,0.07,-0.01,-0.08,-25.48,-25.21,53.8429585.00,-0.25,0.47,-10.14,-0.01,-0.03,-0.05,-25.48,-25.21,53.8429635.00,-0.33,0.44,-10.15,-0.00,0.02,-0.07,-24.07,-25.56,52.1429685.00,-0.20,0.43,-10.27,0.10,0.03,-0.03,-24.07,-25.56,52.1429735.00,-0.21,0.35,-10.20,0.05,0.01,-0.01,-25.48,-25.21,53.1629786.00,-0.27,0.40,-10.13,-0.04,-0.02,-0.07,-25.48,-25.21,53.1629836.00,-0.16,0.35,-10.18,-0.08,-0.01,-0.06,-25.13,-25.92,54.8629886.00,-0.28,0.50,-10.19,0.03,0.02,-0.04,-25.13,-25.92,54.8629936.00,-0.14,0.36,-10.13,0.08,0.05,0.02,-25.13,-25.92,54.8629987.00,-0.34,0.29,-10.14,0.31,-0.01,0.13,-25.83,-23.80,56.5630037.00,-0.68,0.30,-10.32,0.37,0.04,0.28,-25.83,-23.80,56.5630087.00,-0.20,0.10,-10.12,-0.10,-0.06,-0.10,-24.78,-22.04,59.2830137.00,-0.29,0.18,-10.18,-0.44,-0.06,-0.24,-24.78,-22.04,59.2830187.00,0.96,0.55,-10.16,-0.21,0.12,-0.22,-24.78,-22.04,59.2830238.00,-1.23,0.29,-9.93,0.52,-0.04,0.19,-25.30,-25.03,55.7130288.00,0.69,0.31,-10.03,0.10,-0.09,0.04,-25.30,-25.03,55.7130338.00,-0.76,0.20,-10.09,-0.40,0.08,-0.00,-25.48,-22.74,55.8830388.00,0.75,0.18,-9.82,-0.58,-0.30,-0.23,-25.48,-22.74,55.8830438.00,-0.90,0.78,-10.21,-0.22,-0.11,-0.04,-25.48,-22.74,55.8830488.00,-0.32,0.79,-10.25,-0.04,-0.07,0.04,-25.48,-25.56,53.5030539.00,-0.34,0.75,-10.16,0.01,-0.06,-0.01,-25.48,-25.56,53.5030589.00,-0.44,0.76,-10.14,-0.07,-0.08,0.00,-26.53,-26.27,51.1330639.00,-0.45,0.83,-10.19,0.03,-0.00,0.03,-26.53,-26.27,51.1330689.00,-0.43,0.68,-10.11,0.14,-0.03,0.04,-26.53,-26.27,51.1330739.00,-0.41,0.62,-10.20,0.06,-0.01,0.01,-25.48,-26.27,49.4330789.00,-0.61,0.71,-10.05,0.11,0.01,-0.01,-25.48,-26.27,49.4330840.00,-0.52,0.50,-10.33,0.20,0.05,-0.05,-24.95,-27.15,49.6030890.00,-0.26,0.44,-10.19,0.19,-0.01,-0.02,-24.95,-27.15,49.6030940.00,-0.31,0.26,-10.21,0.28,0.00,-0.03,-24.95,-27.15,49.6030990.00,-0.23,0.20,-10.28,0.48,-0.02,0.01,-25.30,-24.68,46.8831041.00,-0.31,-0.24,-9.86,0.57,-0.03,-0.01,-25.30,-24.68,46.8831091.00,-0.27,-0.17,-10.08,-0.27,0.07,-0.01,-25.48,-23.45,48.4131141.00,-0.40,-0.02,-10.14,-0.19,0.10,0.03,-25.48,-23.45,48.4131191.00,-0.17,0.12,-10.08,-0.18,-0.03,-0.09,-25.48,-23.45,48.4131241.00,-0.31,0.06,-10.05,-0.07,-0.01,-0.00,-25.83,-23.09,49.4331292.00,-0.26,0.40,-10.21,-0.23,-0.06,-0.02,-25.83,-23.09,49.4331342.00,-0.30,0.35,-10.30,-0.12,-0.03,-0.01,-25.48,-24.51,54.5231392.00,-0.23,0.39,-10.19,0.03,-0.03,0.02,-25.48,-24.51,54.5231442.00,-0.18,0.41,-10.31,0.15,-0.04,0.11,-25.48,-24.51,54.5231492.00,-0.49,0.08,-10.10,0.59,0.01,0.35,-26.18,-23.45,55.5431543.00,-0.30,-0.13,-10.13,0.42,0.02,0.09,-26.18,-23.45,55.5431593.00,-0.29,-0.11,-10.27,0.01,-0.08,-0.08,-24.60,-20.80,56.7331643.00,-0.32,-0.15,-10.13,-0.03,-0.12,-0.11,-24.60,-20.80,56.7331693.00,-0.85,-0.19,-10.03,-0.22,-0.07,-0.22,-24.60,-20.80,56.7331744.00,0.50,-0.01,-10.16,-0.12,-0.02,-0.18,-25.30,-21.86,54.6931794.00,-0.75,-0.26,-9.81,0.39,-0.13,0.13,-25.30,-21.86,54.6931844.00,-0.48,-0.23,-10.06,0.24,-0.08,0.13,-26.18,-20.98,59.62