time,ax,ay,az,gx,gy,gz,mx,my,mz125.00,0.30,0.15,-10.20,-0.00,-0.01,-0.01,-27.94,-21.68,48.75175.00,0.31,0.15,-10.19,-0.00,-0.01,-0.01,-27.94,-21.68,48.75226.00,0.30,0.15,-10.18,-0.00,-0.01,-0.01,-27.94,-21.68,48.75277.00,0.32,0.14,-10.17,-0.00,-0.01,-0.01,-28.99,-21.33,48.75328.00,0.30,0.16,-10.18,0.00,-0.01,-0.01,-28.99,-21.33,48.75378.00,0.31,0.15,-10.21,0.00,-0.01,-0.01,-28.99,-21.33,48.75429.00,0.29,0.15,-10.19,0.00,-0.01,-0.01,-28.99,-21.33,48.75480.00,0.32,0.15,-10.19,0.00,-0.01,-0.01,-28.99,-21.33,48.75531.00,0.31,0.15,-10.20,0.00,-0.01,-0.01,-28.46,-20.80,48.58581.00,0.30,0.16,-10.21,0.00,-0.01,-0.01,-28.46,-20.80,48.58632.00,0.30,0.15,-10.21,0.00,-0.01,-0.01,-29.52,-21.16,47.90683.00,0.31,0.16,-10.19,0.00,-0.01,-0.01,-29.52,-21.16,47.90734.00,0.31,0.15,-10.20,0.00,-0.01,-0.01,-29.52,-21.16,47.90784.00,0.31,0.16,-10.20,0.00,-0.01,-0.01,-29.17,-21.16,48.92835.00,0.30,0.17,-10.18,0.00,-0.01,-0.01,-29.17,-21.16,48.92886.00,0.31,0.16,-10.21,-0.00,-0.01,-0.01,-28.29,-20.98,48.75937.00,0.30,0.15,-10.20,-0.00,-0.01,-0.01,-28.29,-20.98,48.75987.00,0.31,0.15,-10.19,-0.00,-0.01,-0.01,-28.29,-20.98,48.751038.00,0.31,0.14,-10.19,0.00,-0.01,-0.01,-27.41,-20.10,47.901089.00,0.31,0.16,-10.19,-0.00,-0.01,-0.01,-27.41,-20.10,47.901140.00,0.31,0.15,-10.19,-0.00,-0.01,-0.01,-28.46,-20.45,48.581190.00,0.30,0.14,-10.19,-0.00,-0.01,-0.01,-28.46,-20.45,48.581241.00,0.30,0.16,-10.21,0.00,-0.01,-0.01,-29.52,-21.86,48.581292.00,0.31,0.15,-10.20,-0.00,-0.01,-0.01,-29.52,-21.86,48.581343.00,0.30,0.15,-10.19,-0.00,-0.01,-0.01,-29.52,-21.86,48.581394.00,0.30,0.14,-10.20,-0.00,-0.01,-0.01,-29.34,-20.63,48.751445.00,0.30,0.15,-10.19,-0.00,-0.01,-0.01,-29.34,-20.63,48.751495.00,0.31,0.15,-10.21,0.00,-0.01,-0.01,-29.34,-20.63,48.751546.00,0.31,0.16,-10.19,-0.00,-0.01,-0.01,-27.41,-21.86,49.601597.00,0.31,0.15,-10.19,-0.00,-0.01,-0.01,-27.41,-21.86,49.601648.00,0.31,0.16,-10.20,0.00,-0.01,-0.01,-29.17,-20.80,47.901699.00,0.31,0.16,-10.20,-0.00,-0.01,-0.01,-29.17,-20.80,47.901749.00,0.31,0.16,-10.19,0.00,-0.01,-0.01,-30.22,-20.45,49.941800.00,0.30,0.17,-10.20,-0.00,-0.01,-0.01,-30.22,-20.45,49.941851.00,0.31,0.17,-10.20,0.00,-0.01,-0.01,-30.22,-20.45,49.941902.00,0.31,0.16,-10.18,-0.00,-0.01,-0.01,-28.11,-21.51,47.561953.00,0.32,0.17,-10.18,0.00,-0.01,-0.01,-28.11,-21.51,47.562004.00,0.31,0.14,-10.22,0.00,-0.01,-0.01,-28.46,-20.10,49.262055.00,0.29,0.17,-10.18,0.00,-0.01,-0.01,-28.46,-20.10,49.262105.00,0.31,0.16,-10.18,-0.00,-0.01,-0.01,-28.46,-20.10,49.262156.00,0.30,0.15,-10.19,0.00,-0.01,-0.01,-28.82,-21.51,47.562207.00,1.05,-1.19,-10.16,-0.01,-0.02,0.31,-28.82,-21.51,47.562258.00,0.29,0.39,-10.15,-0.05,-0.01,1.70,-27.76,-23.62,49.942309.00,0.25,0.41,-10.27,-0.04,-0.01,1.35,-27.76,-23.62,49.942360.00,1.06,0.72,-11.26,0.03,0.19,0.19,-27.76,-23.62,49.942410.00,-0.54,0.33,-10.28,-0.03,-0.26,-0.25,-26.53,-21.33,48.752461.00,1.47,-1.61,-8.71,-0.04,-0.28,-0.20,-26.53,-21.33,48.752512.00,-1.69,1.23,-8.08,-0.58,-0.51,-0.26,-27.76,-22.92,48.922563.00,-0.23,1.56,-9.47,0.00,0.63,-2.60,-27.76,-22.92,48.922614.00,3.66,0.47,-9.90,-2.33,1.22,-3.25,-27.76,-22.92,48.922665.00,-0.30,2.06,-12.46,-2.15,0.56,-1.49,-27.94,-26.27,48.072716.00,-0.13,3.44,-13.16,-2.64,-0.86,-1.47,-27.94,-26.27,48.072767.00,-0.53,3.37,-9.46,-1.42,-2.15,-0.73,-34.09,-40.20,40.762817.00,-1.80,7.11,-9.75,-1.26,-2.15,0.66,-34.09,-40.20,40.762868.00,-2.33,7.49,-6.74,-0.68,-2.98,-0.08,-34.09,-40.20,40.762919.00,-4.40,6.41,-5.20,0.46,-1.54,-1.82,-44.10,-42.13,31.762970.00,-4.28,4.36,-9.27,2.46,-0.76,-2.51,-44.10,-42.13,31.763021.00,-4.50,1.40,-7.32,4.00,-1.20,-0.65,-52.71,-31.38,33.293072.00,-5.41,1.74,-4.47,2.67,-1.00,-0.47,-52.71,-31.38,33.293123.00,-3.20,1.18,-7.19,-0.70,0.50,-1.14,-55.70,-22.04,32.443174.00,-5.08,-0.71,-9.45,-0.54,1.06,-1.32,-55.70,-22.04,32.443225.00,-3.98,0.05,-10.75,-1.15,-0.10,0.38,-55.70,-22.04,32.443276.00,-5.04,0.49,-7.17,-2.31,-0.51,1.05,-55.17,-23.62,34.313327.00,-5.26,4.68,-9.48,-1.43,-0.78,0.78,-55.17,-23.62,34.313378.00,-4.07,2.86,-5.55,0.05,-0.94,0.18,-56.93,-32.09,28.873429.00,-4.37,4.12,-5.17,-3.01,0.38,0.98,-56.93,-32.09,28.873480.00,-4.39,5.55,-5.94,-0.43,1.35,0.60,-56.93,-32.09,28.873531.00,-3.93,5.43,-6.90,-1.29,2.06,0.70,-54.29,-37.90,27.013582.00,-4.86,8.76,-9.85,-2.10,1.56,0.46,-54.29,-37.90,27.013633.00,-3.70,6.61,-9.67,-0.49,0.28,-0.51,-48.32,-44.25,28.713684.00,-4.48,6.42,-5.43,-0.01,-0.72,0.04,-48.32,-44.25,28.713735.00,-4.41,7.28,-6.34,0.43,0.27,-0.40,-48.32,-44.25,28.713786.00,-3.60,6.24,-8.17,0.63,0.04,-0.65,-50.96,-41.61,27.523836.00,-3.64,4.82,-7.27,0.72,-0.39,-0.27,-50.96,-41.61,27.523888.00,-3.40,5.49,-8.35,0.56,-0.82,-0.02,-52.89,-38.26,29.383939.00,-5.12,4.71,-5.99,0.19,-0.61,-0.14,-52.89,-38.26,29.383989.00,-4.73,5.61,-7.20,-0.14,-0.15,-0.14,-52.89,-38.26,29.384040.00,-5.16,5.52,-7.37,-0.59,0.02,-0.55,-53.24,-38.26,27.694091.00,-4.67,4.85,-7.78,-1.58,-0.66,-0.52,-53.24,-38.26,27.694142.00,-5.52,2.60,-1.69,-0.85,-4.36,1.60,-55.35,-41.08,21.574193.00,-7.15,11.76,-0.62,-1.89,-1.08,1.89,-55.35,-41.08,21.574244.00,-4.96,5.56,-3.15,-0.37,-0.72,-0.61,-55.35,-41.08,21.574295.00,-5.05,5.18,-3.07,-0.32,-0.38,-0.25,-55.17,-46.19,10.194346.00,-5.57,9.12,-2.63,-0.95,-0.03,0.30,-55.17,-46.19,10.194397.00,-5.67,7.81,-2.97,-1.06,0.01,-0.21,-55.35,-47.42,6.964448.00,-5.98,7.09,-2.01,-0.70,-0.12,-0.20,-55.35,-47.42,6.964499.00,-6.07,7.87,-2.53,0.21,0.23,0.22,-55.17,-45.48,3.064550.00,-5.75,8.18,-3.10,1.29,0.09,0.20,-55.17,-45.48,3.064601.00,-6.00,7.94,-3.14,2.18,-0.09,-0.21,-55.17,-45.48,3.064652.00,-5.92,7.18,-3.94,2.77,-0.03,-0.49,-53.94,-46.37,11.724703.00,-6.67,5.59,-4.84,4.35,0.25,-0.59,-53.94,-46.37,11.724754.00,-6.23,3.91,-6.54,2.91,0.45,-0.35,-53.94,-46.37,11.724805.00,-6.41,4.20,-7.55,1.06,0.03,-0.02,-55.70,-37.90,22.594856.00,-6.23,4.16,-7.07,1.29,-0.11,-0.25,-55.70,-37.90,22.594907.00,-7.51,2.80,-5.30,0.63,0.11,-0.37,-55.00,-33.67,27.014958.00,-5.20,2.97,-5.91,0.88,0.41,-0.71,-55.00,-33.67,27.015009.00,-8.05,5.31,-9.90,1.37,-0.27,-1.70,-57.63,-28.56,29.215060.00,-7.08,1.84,-8.98,2.33,-1.32,-2.64,-57.63,-28.56,29.215111.00,-5.67,1.05,-8.82,4.35,-2.25,-3.20,-57.63,-28.56,29.215162.00,-5.06,-4.75,-0.69,4.35,-3.02,-3.01,-61.50,-4.58,21.745213.00,-7.05,-6.87,1.83,4.35,-2.86,-2.29,-61.50,-4.58,21.745264.00,-5.16,-7.00,4.56,1.86,-0.90,-1.40,-55.52,11.64,-1.025315.00,-3.42,-15.38,2.95,2.25,0.31,-1.15,-55.52,11.64,-1.025366.00,-5.71,-4.95,0.09,-2.65,0.47,1.13,-55.52,11.64,-1.025417.00,-11.97,-6.16,1.75,-4.38,-0.24,-0.00,-55.52,11.28,-1.365468.00,-5.71,-8.99,-0.91,0.71,0.11,0.36,-55.52,11.28,-1.365519.00,-5.71,-6.07,-3.23,0.48,-0.18,0.13,-58.51,12.52,5.945570.00,-4.32,-5.93,-2.14,0.54,-0.93,0.09,-58.51,12.52,5.945621.00,-4.63,-10.69,3.38,-0.76,0.46,-0.08,-58.51,12.52,5.945672.00,-6.09,-5.19,-4.42,-4.00,0.98,0.57,-58.16,13.93,3.235723.00,-4.11,-8.24,-5.79,2.16,-0.01,-0.00,-58.16,13.93,3.235774.00,-10.15,-5.37,-1.64,4.19,-0.22,1.11,-58.69,11.99,6.795825.00,-5.71,-9.35,0.61,4.35,0.25,-1.48,-58.69,11.99,6.795876.00,-7.80,-12.88,0.63,4.35,0.07,0.56,-58.69,11.99,6.795928.00,-8.72,-3.92,4.12,2.46,-0.68,1.24,-59.39,6.70,-5.445979.00,-8.48,-8.12,2.49,-0.36,0.17,-0.66,-59.39,6.70,-5.446030.00,-8.28,-4.94,-1.12,-0.41,0.33,0.93,-60.09,3.88,-7.816081.00,-7.96,-5.50,1.37,1.44,-0.23,0.37,-60.09,3.88,-7.816132.00,-8.91,-4.46,0.74,1.77,-0.34,0.93,-60.09,3.88,-7.816183.00,-8.10,-3.75,3.17,2.81,-0.57,0.68,-62.90,-3.53,-9.856234.00,-9.15,-2.84,5.31,2.94,-0.59,0.46,-62.90,-3.53,-9.856285.00,-6.37,-2.72,4.08,-0.99,-0.93,0.35,-61.15,-11.99,-14.956336.00,-10.16,-2.11,8.27,0.34,0.04,0.08,-61.15,-11.99,-14.956387.00,-6.73,-4.16,2.72,-4.38,1.17,-1.01,-63.26,-5.64,-13.256438.00,-6.66,-8.42,-0.63,-4.26,0.57,-0.73,-63.26,-5.64,-13.256489.00,-8.07,-4.56,2.62,0.49,-0.50,0.86,-63.26,-5.64,-13.256540.00,-7.94,-4.44,1.91,0.61,-0.26,0.24,-60.97,-0.53,-11.046591.00,-8.35,-5.70,0.10,-0.23,0.67,0.24,-60.97,-0.53,-11.046643.00,-8.85,-3.56,2.58,0.24,0.24,0.35,-62.38,-3.70,-7.986694.00,-8.76,-5.18,1.05,0.19,0.01,0.42,-62.38,-3.70,-7.986745.00,-8.03,-4.02,2.24,-0.02,0.05,0.27,-62.38,-3.70,-7.986796.00,-8.83,-2.36,2.56,0.08,-0.13,0.28,-63.43,-5.47,-7.986847.00,-6.81,-6.74,1.31,-0.09,0.03,-0.67,-63.43,-5.47,-7.986898.00,-8.10,-5.43,2.10,0.14,-0.01,0.04,-62.55,-4.23,-8.836949.00,-7.94,-4.27,2.52,0.18,-0.06,0.18,-62.55,-4.23,-8.837001.00,-8.47,-4.29,2.22,0.14,-0.01,0.20,-62.55,-4.23,-8.837052.00,-8.08,-4.74,2.85,0.24,-0.09,0.22,-63.26,-5.99,-8.837103.00,-8.61,-3.85,2.63,0.07,-0.03,0.15,-63.26,-5.99,-8.837154.00,-8.53,-3.97,2.52,-0.08,-0.02,0.03,-62.38,-7.23,-10.027205.00,-8.57,-4.19,2.75,-0.12,0.02,0.10,-62.38,-7.23,-10.027256.00,-8.69,-4.06,2.03,-0.21,0.03,0.14,-62.38,-7.23,-10.027307.00,-8.46,-4.05,2.59,-0.29,-0.04,0.16,-63.78,-7.23,-7.987359.00,-8.07,-4.38,1.21,-0.21,-0.07,0.08,-63.78,-7.23,-7.987410.00,-8.61,-4.00,2.91,-0.02,-0.17,0.18,-63.78,-7.58,-9.347461.00,-8.68,-3.68,2.49,-0.06,-0.16,0.14,-63.78,-7.58,-9.347512.00,-8.91,-3.74,3.30,0.15,-0.25,0.17,-63.78,-7.58,-9.347563.00,-8.58,-3.50,2.30,0.25,-0.35,0.23,-63.78,-7.58,-9.347615.00,-8.48,-4.01,2.75,0.33,-0.31,0.13,-63.78,-7.58,-9.347666.00,-8.67,-3.54,3.65,0.39,-0.30,0.18,-61.67,-10.75,-10.707717.00,-8.77,-3.57,3.79,0.43,-0.23,0.10,-61.67,-10.75,-10.707768.00,-8.32,-3.44,2.77,0.37,-0.20,-0.00,-61.67,-11.81,-12.747819.00,-8.27,-3.44,3.07,0.54,-0.26,0.01,-61.67,-11.81,-12.747871.00,-8.36,-2.87,3.50,0.54,-0.19,-0.04,-61.67,-11.81,-12.747922.00,-8.63,-2.81,4.23,0.09,0.04,-0.21,-61.67,-11.46,-14.447973.00,-8.43,-2.89,4.58,0.03,0.03,-0.15,-61.67,-11.46,-14.448024.00,-8.44,-3.56,3.13,-0.28,0.22,-0.18,-62.73,-11.46,-12.068075.00,-8.48,-3.18,2.85,-0.15,0.13,-0.09,-62.73,-11.46,-12.068126.00,-8.46,-4.01,3.05,-0.55,0.39,-0.19,-62.73,-11.46,-12.068178.00,-8.48,-3.80,2.15,-0.28,0.22,-0.01,-63.08,-9.34,-11.388229.00,-8.77,-3.57,3.15,-0.16,0.17,0.08,-63.08,-9.34,-11.388280.00,-8.54,-4.24,0.74,-0.25,0.31,0.01,-61.85,-9.87,-10.538331.00,-8.64,-3.08,2.37,0.06,0.13,0.10,-61.85,-9.87,-10.538383.00,-8.48,-4.15,0.98,-0.36,0.40,-0.02,-63.78,-10.40,-7.988434.00,-8.89,-3.41,1.91,-0.19,0.26,0.10,-63.78,-10.40,-7.988485.00,-8.76,-3.50,1.55,0.06,0.14,0.16,-63.78,-10.40,-7.988536.00,-8.72,-3.60,2.41,-0.25,0.52,-0.05,-65.36,-10.93,-7.138587.00,-8.62,-4.26,0.40,0.01,0.22,0.02,-65.36,-10.93,-7.138639.00,-9.00,-3.38,2.94,-0.07,0.56,0.01,-65.36,-10.93,-7.138690.00,-9.11,-3.87,1.66,-0.06,0.52,-0.13,-65.01,-9.87,-4.428741.00,-9.00,-3.76,1.87,0.14,0.10,-0.00,-65.01,-9.87,-4.428792.00,-8.73,-3.69,0.37,0.16,-0.05,-0.11,-65.72,-10.58,-1.708844.00,-9.04,-3.93,0.87,0.30,-0.32,-0.29,-65.72,-10.58,-1.708895.00,-9.43,-3.61,1.58,0.33,-0.50,-0.07,-64.31,-8.46,-3.748946.00,-8.26,-3.85,0.79,0.07,-0.44,0.03,-64.31,-8.46,-3.748997.00,-8.79,-4.05,1.20,0.04,-0.44,0.11,-64.31,-8.46,-3.749049.00,-8.41,-3.70,1.17,-0.14,-0.19,0.09,-65.54,-10.05,-6.289100.00,-8.49,-4.04,1.90,-0.09,-0.30,0.23,-65.54,-10.05,-6.289151.00,-8.53,-4.10,1.56,-0.29,-0.05,0.11,-65.19,-10.75,-7.649202.00,-8.80,-3.22,2.31,-0.37,-0.12,0.27,-65.19,-10.75,-7.649254.00,-8.86,-3.55,1.84,-0.33,-0.12,0.13,-65.19,-10.75,-7.649305.00,-8.89,-3.34,2.86,-0.33,-0.11,0.12,-65.36,-10.93,-8.839356.00,-8.43,-3.79,2.07,-0.23,-0.14,0.02,-65.36,-10.93,-8.839408.00,-8.88,-3.94,2.78,-0.09,-0.18,0.02,-64.31,-11.99,-9.519459.00,-8.98,-3.63,2.53,0.18,-0.28,0.07,-64.31,-11.99,-9.519510.00,-8.49,-3.46,1.38,0.20,-0.21,0.06,-64.31,-11.99,-9.519562.00,-8.50,-3.36,2.13,0.35,-0.32,0.02,-66.07,-11.64,-11.219613.00,-8.81,-3.34,2.63,0.28,-0.18,-0.04,-66.07,-11.64,-11.219664.00,-8.71,-3.43,3.10,0.25,-0.10,-0.20,-63.78,-12.87,-10.369716.00,-8.67,-3.36,2.96,0.13,-0.02,-0.21,-63.78,-12.87,-10.369767.00,-8.85,-3.60,2.12,-0.16,0.20,-0.25,-63.61,-10.58,-11.219818.00,-8.52,-3.69,2.10,-0.35,0.36,-0.33,-63.61,-10.58,-11.219870.00,-8.82,-2.81,1.22,-0.32,0.35,-0.15,-63.61,-10.58,-11.219921.00,-8.58,-3.81,-0.02,-0.37,0.45,-0.14,-63.43,-8.64,-9.009972.00,-8.55,-3.44,0.24,-0.32,0.43,0.01,-63.43,-8.64,-9.0010024.00,-8.94,-3.91,2.40,-0.20,0.16,0.04,-63.43,-8.64,-9.0010075.00,-8.66,-4.13,1.01,-0.21,0.26,0.01,-64.66,-9.17,-7.4710126.00,-9.09,-3.59,1.87,-0.00,-0.04,0.11,-64.66,-9.17,-7.4710178.00,-8.71,-4.09,0.95,-0.19,0.26,0.03,-65.89,-8.29,-6.2810229.00,-8.78,-3.70,1.50,-0.14,0.17,0.02,-65.89,-8.29,-6.2810280.00,-8.90,-4.37,1.49,0.00,-0.07,0.01,-65.72,-8.46,-4.7610332.00,-8.83,-4.31,1.19,-0.16,0.29,-0.04,-65.72,-8.46,-4.7610383.00,-8.69,-4.05,0.20,-0.14,0.32,0.04,-65.72,-8.46,-4.7610434.00,-8.75,-4.17,0.74,-0.12,0.29,-0.06,-64.84,-8.29,-3.5710486.00,-8.83,-3.85,-0.58,-0.03,0.16,0.02,-64.84,-8.29,-3.5710537.00,-8.73,-3.81,0.72,0.12,-0.11,-0.04,-66.24,-7.93,-1.8710588.00,-8.70,-3.85,0.47,0.11,-0.08,-0.08,-66.24,-7.93,-1.8710640.00,-8.96,-3.53,0.81,0.11,-0.24,-0.01,-66.24,-7.93,-1.8710691.00,-8.79,-3.52,-0.54,-0.07,-0.20,-0.03,-66.07,-7.40,-3.0610743.00,-8.45,-3.84,1.04,0.17,-0.58,0.08,-66.07,-7.40,-3.0610794.00,-9.15,-3.70,1.97,-0.08,-0.22,-0.03,-64.84,-8.99,-5.6110845.00,-9.55,-3.25,2.40,-0.13,-0.24,0.06,-64.84,-8.99,-5.6110897.00,-8.72,-4.30,0.08,-0.32,-0.03,-0.05,-64.84,-8.99,-5.6110948.00,-8.99,-3.96,1.47,-0.38,-0.05,0.06,-64.84,-7.93,-5.6110999.00,-9.08,-3.56,1.23,-0.47,-0.01,0.07,-64.84,-7.93,-5.6111051.00,-8.61,-4.44,0.19,-0.39,0.08,-0.04,-65.36,-7.76,-5.7711102.00,-8.76,-3.86,1.17,-0.22,-0.09,0.15,-65.36,-7.76,-5.7711154.00,-8.95,-4.35,0.41,-0.23,-0.03,-0.02,-63.78,-8.29,-6.9611205.00,-9.00,-3.91,1.38,-0.20,-0.06,0.04,-63.78,-8.29,-6.9611256.00,-8.69,-4.70,0.42,-0.12,-0.18,0.00,-63.78,-8.29,-6.9611308.00,-9.42,-3.07,1.94,-0.00,-0.28,0.13,-64.66,-8.11,-4.7611360.00,-8.59,-5.05,-0.17,-0.02,-0.14,-0.09,-64.66,-8.11,-4.7611411.00,-8.91,-4.03,1.43,0.13,-0.17,-0.01,-64.66,-7.76,-7.1311462.00,-9.23,-3.93,1.68,0.29,-0.36,-0.02,-64.66,-7.76,-7.1311514.00,-8.80,-3.79,1.75,0.23,-0.10,-0.14,-64.66,-7.76,-7.1311565.00,-8.68,-3.90,1.15,0.19,-0.05,-0.16,-64.49,-8.29,-7.3011617.00,-8.80,-3.98,2.59,0.02,0.07,-0.14,-64.49,-8.29,-7.3011668.00,-8.98,-3.86,0.98,-0.06,0.16,-0.15,-65.19,-6.88,-8.3211720.00,-8.59,-4.33,1.42,-0.22,0.43,-0.21,-65.19,-6.88,-8.3211771.00,-8.86,-4.06,1.21,-0.20,0.39,-0.01,-63.78,-7.23,-6.9611822.00,-9.12,-4.01,0.01,-0.20,0.39,0.02,-63.78,-7.23,-6.9611874.00,-8.97,-3.74,1.58,-0.02,0.11,0.05,-63.78,-7.23,-6.9611925.00,-8.61,-3.68,0.87,-0.13,0.16,0.04,-65.36,-6.35,-5.1011977.00,-9.05,-3.64,-0.57,-0.18,0.20,0.04,-65.36,-6.35,-5.1012028.00,-9.02,-4.43,1.66,-0.00,0.10,0.08,-64.13,-6.52,-2.5512079.00,-8.82,-4.49,1.25,-0.05,0.22,0.03,-64.13,-6.52,-2.5512131.00,-8.69,-3.18,-1.58,0.06,0.22,0.16,-64.13,-6.52,-2.5512182.00,-8.63,-4.16,-0.30,-0.04,0.37,0.04,-65.54,-7.23,-2.5512234.00,-8.79,-3.27,-1.87,-0.14,0.35,0.09,-65.54,-7.23,-2.5512285.00,-8.93,-3.90,-0.34,-0.08,0.43,0.11,-66.59,-7.93,-0.1712337.00,-8.62,-4.18,0.10,-0.11,0.41,0.05,-66.59,-7.93,-0.1712388.00,-9.77,-4.24,-0.15,-0.02,0.37,-0.03,-66.59,-7.93,-0.1712440.00,-8.99,-3.87,-1.29,0.00,0.14,-0.01,-66.59,-8.64,0.8512491.00,-9.13,-3.98,-0.51,0.08,-0.18,-0.14,-66.59,-8.64,0.8512542.00,-9.09,-3.61,-0.10,0.08,-0.24,-0.11,-65.72,-8.11,1.0212594.00,-8.32,-3.68,-1.51,0.04,-0.36,-0.05,-65.72,-8.11,1.0212645.00,-9.00,-3.84,-0.70,0.01,-0.33,-0.08,-65.72,-8.11,1.0212697.00,-9.33,-3.26,0.55,-0.03,-0.27,0.02,-66.07,-6.70,-1.0212748.00,-9.01,-4.09,0.54,-0.18,-0.10,0.00,-66.07,-6.70,-1.0212800.00,-8.84,-4.08,-0.11,-0.21,-0.09,-0.00,-66.24,-7.93,-1.8712851.00,-8.72,-3.59,-0.50,-0.17,-0.15,0.03,-66.24,-7.93,-1.8712903.00,-8.97,-3.82,0.39,-0.18,-0.15,-0.02,-66.24,-7.93,-1.8712954.00,-8.65,-4.38,-1.57,-0.26,0.06,-0.06,-65.36,-5.64,-3.0613006.00,-8.77,-4.06,-0.58,-0.21,-0.15,0.07,-65.36,-5.64,-3.0613057.00,-9.27,-3.48,0.83,-0.20,-0.21,0.14,-65.01,-6.70,-3.0613109.00,-8.77,-4.24,-0.25,-0.23,-0.15,0.01,-65.01,-6.70,-3.0613160.00,-8.35,-4.08,-0.56,-0.14,-0.19,0.06,-65.19,-6.17,-3.2313212.00,-8.80,-4.43,-0.12,-0.04,-0.10,-0.02,-65.19,-6.17,-3.2313263.00,-8.72,-4.13,0.10,0.03,-0.26,0.07,-65.19,-6.17,-3.2313315.00,-8.75,-4.36,-0.24,0.05,-0.24,0.06,-64.84,-6.17,-4.5913367.00,-9.36,-3.71,1.30,0.11,-0.33,0.13,-64.84,-6.17,-4.5913418.00,-8.83,-4.03,0.91,0.18,-0.38,-0.04,-64.49,-6.17,-7.3013470.00,-8.73,-3.78,0.56,0.08,-0.08,-0.11,-64.49,-6.17,-7.3013521.00,-9.03,-3.73,1.01,0.09,-0.03,-0.20,-64.49,-6.17,-7.3013573.00,-8.53,-4.20,1.97,-0.11,0.21,-0.25,-63.61,-7.76,-7.8113624.00,-9.06,-3.70,3.23,-0.17,0.03,-0.12,-63.61,-7.76,-7.8113676.00,-8.81,-3.87,1.18,-0.24,0.41,-0.08,-63.96,-5.99,-5.7713727.00,-9.14,-4.82,1.50,-0.05,0.29,0.02,-63.96,-5.99,-5.7713779.00,-8.87,-3.53,-0.66,-0.17,0.34,0.18,-63.96,-5.99,-5.7713830.00,-8.99,-3.67,-0.74,-0.08,0.16,0.21,-65.19,-5.11,-3.2313882.00,-9.17,-3.37,-0.70,-0.13,0.22,0.08,-65.19,-5.11,-3.2313934.00,-8.76,-4.06,-0.45,-0.04,0.04,0.06,-64.49,-6.17,-3.5713985.00,-8.96,-3.64,-1.29,-0.12,0.11,-0.04,-64.49,-6.17,-3.5714037.00,-8.81,-3.94,-0.18,-0.12,0.08,-0.00,-66.95,-6.88,-1.5314088.00,-9.09,-4.30,-0.59,-0.13,0.08,-0.06,-66.95,-6.88,-1.5314140.00,-8.86,-4.22,1.23,-0.10,0.10,0.10,-66.95,-6.88,-1.5314191.00,-8.83,-4.34,-0.95,-0.13,0.39,0.12,-65.36,-8.11,1.0214243.00,-9.03,-4.53,1.34,0.04,0.01,0.11,-65.36,-8.11,1.0214295.00,-9.02,-3.69,-1.65,-0.04,0.36,0.10,-66.77,-8.11,0.6814346.00,-9.29,-4.24,-0.30,-0.03,0.25,0.05,-66.77,-8.11,0.6814398.00,-8.95,-3.35,-1.14,-0.02,0.31,0.03,-66.77,-8.11,0.6814449.00,-8.96,-3.66,-2.23,0.02,0.11,0.02,-66.24,-7.93,3.9114501.00,-9.30,-3.85,-1.94,0.08,0.04,0.00,-66.24,-7.93,3.9114552.00,-9.38,-3.45,-0.74,0.23,-0.48,-0.14,-65.54,-8.64,4.9314604.00,-9.43,-3.25,0.03,0.14,-0.32,-0.08,-65.54,-8.64,4.9314656.00,-9.47,-3.91,-0.39,0.12,-0.71,-0.09,-65.36,-8.46,2.3814707.00,-9.37,-3.30,0.06,-0.04,-0.35,-0.05,-65.36,-8.46,2.3814759.00,-9.10,-4.14,-0.78,-0.09,-0.38,-0.07,-65.36,-8.46,2.3814811.00,-9.50,-3.51,0.70,-0.10,-0.33,-0.02,-66.59,-8.29,-0.5114862.00,-8.76,-4.05,-0.76,-0.16,-0.18,0.00,-66.59,-8.29,-0.5114914.00,-9.06,-3.91,-0.50,-0.16,-0.15,-0.02,-66.24,-6.52,-1.5314965.00,-8.96,-4.28,-0.01,-0.13,-0.08,-0.01,-66.24,-6.52,-1.5315017.00,-8.84,-4.08,-1.12,-0.09,-0.08,0.02,-66.24,-6.52,-1.5315069.00,-9.34,-3.51,0.29,-0.07,-0.19,0.12,-65.89,-7.58,-2.8915120.00,-9.08,-3.34,-0.62,-0.14,-0.13,0.02,-65.89,-7.58,-2.8915172.00,-8.90,-4.29,-1.50,-0.16,0.02,-0.11,-66.24,-6.88,-2.8915224.00,-8.84,-3.48,-0.84,-0.08,-0.20,0.00,-66.24,-6.88,-2.8915275.00,-8.93,-4.74,-0.17,-0.02,-0.08,-0.11,-66.24,-6.88,-2.8915327.00,-8.92,-3.92,-0.48,0.04,-0.11,0.09,-66.07,-5.99,-2.7215378.00,-9.10,-3.49,-0.27,-0.03,-0.14,0.02,-66.07,-5.99,-2.7215430.00,-8.79,-4.13,-0.89,0.04,-0.14,0.04,-65.19,-6.17,-3.2315482.00,-8.98,-3.84,-0.16,0.09,-0.17,0.09,-65.19,-6.17,-3.2315533.00,-9.06,-3.50,-0.44,0.14,-0.23,0.10,-64.84,-7.23,-4.2515585.00,-9.10,-3.43,-0.06,0.05,-0.05,0.01,-64.84,-7.23,-4.2515637.00,-8.98,-4.11,0.29,0.20,-0.30,-0.09,-64.84,-7.23,-4.2515689.00,-9.22,-3.34,1.06,0.20,-0.25,-0.04,-66.24,-8.29,-6.2815740.00,-9.25,-3.70,0.69,0.08,-0.05,-0.20,-66.24,-8.29,-6.2815792.00,-8.92,-3.99,0.41,-0.05,0.22,-0.27,-64.84,-6.52,-5.9415844.00,-9.30,-3.73,-0.78,-0.09,0.31,-0.21,-64.84,-6.52,-5.9415895.00,-9.44,-3.17,-1.38,-0.14,0.50,-0.24,-64.84,-6.52,-5.9415947.00,-9.77,-4.75,-0.35,-0.13,0.74,-0.21,-65.19,-4.76,-5.2715999.00,-8.85,-3.75,0.11,0.00,0.38,0.12,-65.19,-4.76,-5.2716051.00,-8.59,-3.60,-1.19,-0.12,0.43,0.16,-65.36,-5.29,-3.4016102.00,-8.94,-4.50,-1.06,-0.07,0.16,0.11,-65.36,-5.29,-3.4016154.00,-9.12,-3.72,-0.32,-0.12,0.18,0.14,-65.36,-5.29,-3.4016206.00,-9.09,-4.10,-0.25,-0.12,0.12,-0.05,-66.59,-6.88,-0.8516258.00,-9.21,-3.73,-1.20,-0.12,-0.01,0.00,-66.59,-6.88,-0.8516310.00,-9.09,-4.24,-0.14,-0.08,-0.06,-0.01,-65.72,-5.99,0.3416361.00,-8.86,-3.59,-1.38,-0.18,0.13,0.08,-65.72,-5.99,0.3416413.00,-8.88,-3.54,-1.38,-0.18,0.27,0.15,-66.07,-7.05,0.6816465.00,-8.85,-4.23,-0.91,-0.09,0.25,0.03,-66.07,-7.05,0.6816517.00,-8.92,-3.54,-3.15,-0.14,0.32,0.05,-66.07,-7.05,0.6816568.00,-8.93,-3.51,-0.38,-0.10,0.39,0.09,-66.24,-8.64,1.8716620.00,-8.90,-3.44,-3.08,-0.14,0.52,0.15,-66.24,-8.64,1.8716672.00,-8.94,-3.19,-2.89,0.00,0.42,-0.02,-65.72,-8.11,4.0816723.00,-8.94,-3.43,-2.40,0.08,0.05,-0.06,-65.72,-8.11,4.0816775.00,-9.43,-3.54,-1.96,0.14,-0.18,-0.21,-65.72,-8.11,4.0816827.00,-9.06,-3.27,-1.74,0.11,-0.50,-0.23,-65.89,-8.64,4.9316879.00,-8.51,-3.31,-2.92,-0.09,-0.22,-0.19,-65.89,-8.64,4.9316930.00,-8.80,-3.82,-0.70,-0.07,-0.48,-0.10,-66.77,-7.05,3.0616982.00,-9.07,-4.02,-0.55,-0.02,-0.36,-0.01,-66.77,-7.05,3.0617034.00,-9.24,-3.36,-0.81,-0.14,-0.29,0.07,-65.54,-7.23,0.1717085.00,-9.24,-3.55,-0.46,-0.14,-0.24,0.04,-65.54,-7.23,0.1717137.00,-9.34,-3.70,-0.24,-0.18,-0.15,0.01,-65.54,-7.23,0.1717189.00,-9.12,-4.10,-1.02,-0.17,-0.20,0.03,-65.54,-7.58,-1.8717241.00,-9.27,-3.39,-0.99,-0.16,-0.12,0.05,-65.54,-7.58,-1.8717292.00,-9.16,-3.61,-0.47,-0.24,-0.08,0.05,-65.72,-6.70,-3.0617344.00,-9.10,-3.90,-0.69,-0.19,-0.20,-0.01,-65.72,-6.70,-3.0617396.00,-9.20,-3.93,-0.25,-0.08,-0.11,-0.06,-65.72,-6.70,-3.0617448.00,-9.09,-3.70,-1.55,-0.02,-0.29,0.01,-65.54,-5.47,-3.5717499.00,-8.94,-4.11,-1.30,0.01,-0.09,-0.14,-65.54,-5.47,-3.5717551.00,-8.97,-3.48,-0.18,0.13,-0.29,0.01,-65.54,-5.82,-4.9317603.00,-8.83,-3.77,-0.12,0.20,-0.37,-0.12,-65.54,-5.82,-4.9317655.00,-8.83,-3.56,-0.31,0.17,-0.10,-0.18,-65.54,-5.82,-4.9317706.00,-8.99,-3.99,0.06,0.17,-0.03,-0.25,-63.43,-5.47,-5.6117758.00,-8.98,-4.26,0.10,0.23,-0.06,-0.24,-63.43,-5.47,-5.6117810.00,-8.86,-4.06,0.97,0.20,0.01,-0.19,-63.08,-4.76,-5.9417862.00,-8.92,-3.96,0.96,-0.14,0.41,-0.19,-63.08,-4.76,-5.9417914.00,-8.98,-4.39,2.30,0.12,0.04,-0.10,-65.54,-4.05,-5.2717965.00,-8.45,-4.49,-2.81,-0.04,0.42,-0.00,-65.54,-4.05,-5.2718017.00,-8.75,-4.07,-0.74,-0.01,0.31,0.18,-65.54,-4.05,-5.2718069.00,-9.32,-3.86,0.81,0.22,-0.16,0.05,-65.36,-4.58,-4.0818121.00,-9.12,-4.09,1.03,-0.12,0.07,0.12,-65.36,-4.58,-4.0818172.00,-9.31,-3.32,-1.62,-0.30,0.21,0.11,-65.19,-5.47,-2.2118224.00,-8.84,-3.82,-0.83,-0.23,0.08,0.15,-65.19,-5.47,-2.2118276.00,-8.94,-3.58,-1.47,-0.25,0.14,0.12,-65.19,-5.47,-2.2118328.00,-9.01,-3.69,-1.33,-0.24,0.36,0.10,-64.84,-4.41,-1.8718380.00,-8.88,-3.72,-1.20,-0.18,0.36,0.13,-64.84,-4.41,-1.8718431.00,-9.12,-4.34,-0.94,-0.13,0.26,0.01,-66.24,-4.76,0.5118483.00,-9.01,-4.09,-0.84,-0.05,0.24,0.04,-66.24,-4.76,0.5118535.00,-9.03,-4.15,-1.55,-0.04,0.31,-0.03,-66.24,-4.76,0.5118587.00,-8.69,-3.51,-2.04,0.03,0.18,-0.06,-67.30,-6.17,2.8918639.00,-8.87,-3.82,-2.29,0.14,-0.05,-0.18,-67.30,-6.17,2.8918691.00,-9.04,-3.29,-1.73,0.13,-0.19,-0.16,-65.89,-4.76,3.9118742.00,-8.79,-4.19,-1.03,0.12,-0.48,-0.29,-65.89,-4.76,3.9118794.00,-8.99,-3.71,-1.52,-0.02,-0.30,-0.11,-66.07,-4.58,0.6818846.00,-9.23,-4.30,0.07,0.07,-0.52,-0.08,-66.07,-4.58,0.6818898.00,-9.15,-3.66,-0.62,-0.08,-0.32,-0.02,-66.07,-4.58,0.6818950.00,-9.17,-4.13,0.27,-0.20,-0.44,0.01,-65.72,-4.23,-0.3419002.00,-9.24,-3.86,-0.38,-0.16,-0.27,0.04,-65.72,-4.23,-0.3419053.00,-8.97,-3.70,-1.36,-0.24,-0.14,0.03,-65.72,-4.58,-2.7219105.00,-9.21,-4.16,-0.33,-0.24,-0.23,0.04,-65.72,-4.58,-2.7219158.00,-8.80,-3.96,-1.31,-0.24,-0.16,0.06,-65.72,-4.58,-2.7219210.00,-9.03,-3.52,-0.20,-0.23,-0.29,0.06,-65.89,-4.76,-4.2519261.00,-8.83,-3.89,-0.94,-0.15,-0.23,-0.00,-65.89,-4.76,-4.2519313.00,-9.25,-3.48,0.44,-0.26,-0.28,-0.05,-65.01,-4.94,-3.7419365.00,-8.81,-3.83,-2.16,-0.37,-0.02,-0.22,-65.01,-4.94,-3.7419417.00,-8.83,-3.88,-1.37,-0.25,-0.31,-0.16,-64.84,-3.00,-4.5919469.00,-8.87,-4.82,-0.28,-0.01,-0.22,-0.17,-64.84,-3.00,-4.5919521.00,-8.70,-3.94,-0.87,0.13,-0.28,-0.10,-64.84,-3.00,-4.5919573.00,-8.75,-3.88,-0.88,0.07,-0.10,-0.12,-62.90,-1.06,-5.4419625.00,-8.70,-4.33,-0.49,0.14,-0.06,-0.21,-62.90,-1.06,-5.4419677.00,-8.74,-4.22,-0.05,0.09,0.10,-0.19,-63.78,-0.18,-6.2819729.00,-8.68,-4.59,0.03,-0.05,0.24,-0.15,-63.78,-0.18,-6.2819780.00,-8.83,-4.43,-0.05,-0.23,0.37,-0.03,-63.78,-0.18,-6.2819833.00,-8.72,-4.53,-0.89,-0.28,0.39,0.07,-66.24,0.88,-4.2519884.00,-8.92,-3.32,-2.73,-0.20,0.37,0.21,-66.24,0.88,-4.2519937.00,-8.97,-3.73,-1.26,-0.10,0.25,0.18,-62.90,-1.41,-1.3619988.00,-8.97,-3.22,-2.49,-0.29,0.33,0.22,-62.90,-1.41,-1.3620040.00,-9.14,-4.00,-0.39,-0.21,0.06,0.17,-62.90,-1.41,-1.3620092.00,-8.90,-4.20,-1.00,-0.26,0.26,0.21,-65.36,-2.47,-1.7020144.00,-8.73,-3.66,-1.91,-0.14,0.09,0.18,-65.36,-2.47,-1.7020196.00,-9.12,-3.22,-2.35,-0.19,0.37,0.25,-64.31,-2.82,-1.3620248.00,-8.87,-4.07,-1.03,-0.13,0.38,0.23,-64.31,-2.82,-1.3620300.00,-8.97,-3.02,-2.55,-0.07,0.41,0.13,-65.36,-4.23,3.7420353.00,-9.14,-3.22,-2.99,-0.13,0.64,0.16,-65.36,-4.23,3.7420408.00,-8.72,-3.62,-2.75,-0.08,0.26,-0.01,-65.36,-4.23,3.7420458.00,-8.79,-3.48,-3.60,0.06,0.07,-0.10,-66.07,-4.94,5.7720508.00,-8.95,-3.46,-2.81,0.06,-0.18,-0.23,-66.07,-4.94,5.7720559.00,-9.30,-3.45,-1.87,0.14,-0.53,-0.28,-65.01,-3.53,3.4020609.00,-9.14,-3.18,-2.33,-0.02,-0.45,-0.25,-65.01,-3.53,3.4020660.00,-9.00,-3.67,-2.03,0.07,-0.54,-0.15,-65.01,-3.53,3.4020710.00,-9.09,-3.54,-1.22,-0.03,-0.27,-0.07,-65.54,-2.29,0.5120761.00,-8.69,-4.31,-2.37,-0.02,-0.23,-0.05,-65.54,-2.29,0.5120811.00,-9.05,-3.83,-0.74,0.10,-0.42,0.07,-65.89,-1.94,-0.1720861.00,-9.07,-3.98,-1.04,-0.09,-0.29,0.01,-65.89,-1.94,-0.1720912.00,-9.11,-3.92,-0.82,-0.09,-0.37,0.06,-65.89,-1.94,-0.1720962.00,-8.99,-3.80,-2.42,-0.33,0.01,-0.02,-65.89,-1.94,-0.1721013.00,-8.97,-4.19,-1.43,-0.21,-0.33,0.00,-65.89,-1.94,-0.1721063.00,-8.86,-3.94,-1.64,-0.13,-0.16,-0.04,-64.84,-0.88,-2.2121114.00,-9.19,-3.54,-1.06,-0.15,-0.29,-0.01,-64.84,-0.88,-2.2121164.00,-8.92,-3.73,-2.09,-0.21,-0.14,-0.04,-64.84,-0.88,-2.2121215.00,-9.00,-3.26,-1.36,-0.36,-0.12,-0.08,-65.19,-1.23,-3.2321265.00,-8.99,-3.76,-2.78,-0.18,-0.13,0.00,-65.19,-1.23,-3.2321315.00,-8.73,-3.70,-2.94,-0.01,-0.09,-0.08,-63.61,-0.35,-2.3821366.00,-8.90,-3.70,-1.18,0.08,-0.28,-0.04,-63.61,-0.35,-2.3821416.00,-9.02,-3.84,-0.93,0.26,-0.37,-0.15,-63.61,-0.35,-2.3821467.00,-8.99,-3.46,-1.21,0.10,-0.10,-0.07,-64.49,-0.53,-2.2121517.00,-8.72,-4.09,-0.48,0.25,-0.19,-0.27,-64.49,-0.53,-2.2121568.00,-9.00,-4.65,0.52,0.02,-0.03,-0.27,-62.90,-0.35,-5.4421618.00,-9.12,-3.46,-2.44,-0.29,0.59,-0.04,-62.90,-0.35,-5.4421669.00,-9.11,-3.77,-0.49,-0.19,0.38,0.05,-62.90,-0.35,-5.4421720.00,-8.68,-3.88,-1.11,-0.21,0.49,0.25,-63.78,0.18,-3.9121770.00,-9.12,-3.33,-1.89,-0.20,0.29,0.23,-63.78,0.18,-3.9121821.00,-9.08,-3.83,-1.07,-0.10,0.07,0.15,-65.36,-0.71,-2.0421871.00,-8.75,-3.74,-1.84,-0.20,0.14,0.33,-65.36,-0.71,-2.0421922.00,-9.11,-3.30,-1.75,-0.18,0.07,0.09,-65.36,-0.71,-2.0421972.00,-8.76,-4.26,-1.92,-0.20,0.08,0.10,-64.31,-1.06,-0.3422023.00,-9.02,-2.93,-2.26,-0.21,0.09,0.23,-64.31,-1.06,-0.3422074.00,-9.08,-2.77,-3.46,-0.23,0.19,0.13,-65.01,-2.12,0.3422124.00,-9.08,-2.92,-2.27,-0.15,0.23,0.20,-65.01,-2.12,0.3422175.00,-9.10,-2.58,-3.34,-0.08,0.37,0.17,-65.01,-2.12,0.3422225.00,-9.12,-3.15,-2.10,0.02,0.25,0.19,-66.59,-3.35,0.8522276.00,-9.35,-1.81,-3.97,-0.11,0.43,0.20,-66.59,-3.35,0.8522326.00,-9.21,-3.10,-2.61,-0.04,0.32,0.07,-66.42,-3.88,4.4222377.00,-8.97,-2.40,-3.48,-0.04,0.13,-0.10,-66.42,-3.88,4.4222428.00,-9.03,-2.98,-3.30,0.04,-0.10,-0.33,-66.42,-3.88,4.4222478.00,-8.87,-2.92,-2.93,0.00,-0.19,-0.32,-66.24,-5.47,4.9322529.00,-8.84,-3.23,-2.75,0.07,-0.33,-0.41,-66.24,-5.47,4.9322579.00,-9.08,-3.25,-3.44,0.01,-0.27,-0.30,-65.01,-0.71,3.0622630.00,-8.97,-3.98,-1.65,0.08,-0.44,-0.20,-65.01,-0.71,3.0622680.00,-8.93,-3.48,-2.40,0.12,-0.46,-0.08,-64.31,-2.12,0.0022731.00,-9.22,-3.78,-0.90,0.07,-0.43,-0.07,-64.31,-2.12,0.0022782.00,-9.01,-3.93,-1.35,0.05,-0.38,-0.09,-64.31,-2.12,0.0022832.00,-8.74,-4.02,-2.25,0.12,-0.34,-0.05,-64.31,-1.06,-1.7022883.00,-9.34,-3.77,-1.49,0.03,-0.34,-0.09,-64.31,-1.06,-1.7022934.00,-9.28,-3.72,-0.56,0.06,-0.37,-0.04,-64.31,-1.06,-1.7022984.00,-9.07,-3.74,-0.49,0.02,-0.27,-0.07,-62.90,0.35,-2.7223035.00,-8.73,-4.38,-1.61,-0.04,-0.15,-0.08,-62.90,0.35,-2.7223085.00,-8.81,-3.75,-1.69,0.00,-0.19,-0.01,-64.84,0.88,-2.8923136.00,-9.22,-2.43,-0.03,-0.00,0.05,-0.21,-64.84,0.88,-2.8923187.00,-9.84,-2.37,-1.51,-0.27,0.56,-1.71,-63.08,4.05,-3.2323237.00,-6.39,-7.64,-2.58,-0.14,0.21,-1.46,-63.08,4.05,-3.2323288.00,-6.40,-7.54,-2.26,0.08,-0.02,-0.59,-63.08,4.05,-3.2323338.00,-8.00,-5.42,-1.38,0.22,-0.24,-0.09,-59.04,10.58,-2.3823389.00,-8.53,-4.93,-1.07,0.08,-0.10,-0.33,-59.04,10.58,-2.3823439.00,-7.46,-6.65,-1.10,-0.06,0.07,-0.38,-58.34,13.05,-2.3823490.00,-6.89,-6.02,-1.37,-0.17,0.41,-0.32,-58.34,13.05,-2.3823541.00,-6.68,-6.57,-2.63,0.34,0.37,-0.05,-58.34,13.05,-2.3823591.00,-8.18,-7.23,-2.71,0.60,0.31,0.22,-58.51,13.93,-2.5523642.00,-8.63,-7.74,-2.56,0.44,0.35,0.30,-58.51,13.93,-2.5523692.00,-8.72,-5.48,-2.80,0.79,0.06,0.49,-59.04,9.52,-1.0223743.00,-6.76,-5.04,-1.06,0.41,0.15,0.02,-59.04,9.52,-1.0223794.00,-6.00,-5.86,-1.17,0.29,0.95,0.15,-59.04,9.52,-1.0223844.00,-7.96,-5.38,-4.53,0.19,0.91,0.85,-60.27,6.52,-1.1923895.00,-6.94,-5.21,-3.53,0.43,0.66,1.03,-60.27,6.52,-1.1923946.00,-8.18,-3.34,-4.81,0.35,1.25,0.82,-63.78,-0.18,4.2523996.00,-6.71,-4.39,-3.09,0.72,0.69,0.59,-63.78,-0.18,4.2524047.00,-8.67,-2.90,-3.90,0.16,1.34,0.72,-63.78,-0.18,4.2524097.00,-8.49,-3.43,-3.16,0.13,1.04,0.42,-64.31,-4.23,10.8724148.00,-9.31,-3.28,-3.97,-0.00,0.92,0.23,-64.31,-4.23,10.8724199.00,-8.44,-4.81,-3.10,0.30,0.50,-0.66,-61.67,-3.70,16.4824249.00,-8.92,-5.02,-3.16,0.02,0.40,-0.45,-61.67,-3.70,16.4824300.00,-6.65,-5.57,-2.98,-0.78,-0.16,-0.16,-61.67,-3.70,16.4824351.00,-7.56,-4.64,-3.51,-1.26,-0.61,0.88,-62.73,-2.29,17.4924402.00,-8.84,-2.26,-4.20,-0.27,-0.44,0.36,-62.73,-2.29,17.4924452.00,-14.61,-1.72,-1.25,-1.55,-0.26,0.68,-62.38,-8.29,16.8224503.00,-6.38,-1.28,-4.93,-1.34,0.05,-1.14,-62.38,-8.29,16.8224554.00,-7.82,-6.08,-1.88,-1.28,1.09,-1.33,-62.38,-8.29,16.8224604.00,-5.82,-3.64,-8.84,-2.50,0.78,0.98,-62.03,-5.82,18.8524655.00,-6.81,-2.86,-6.86,-4.33,0.05,1.98,-62.03,-5.82,18.8524706.00,-8.84,3.92,-3.66,-2.43,-1.88,1.46,-62.03,-22.04,21.2324757.00,-10.08,4.18,-6.92,-2.01,-0.68,0.31,-62.03,-22.04,21.2324808.00,-7.51,1.13,-4.50,-4.03,-0.10,-1.28,-62.03,-22.04,21.2324859.00,-7.74,0.68,-6.17,-3.24,-0.08,0.54,-65.72,-23.98,13.9324909.00,-8.64,3.27,-6.85,-2.67,-0.78,1.57,-65.72,-23.98,13.9324960.00,-8.63,6.25,-4.15,-0.52,-1.61,1.05,-63.08,-30.85,6.6225011.00,-8.31,6.27,-1.84,-0.42,-1.66,0.45,-63.08,-30.85,6.6225062.00,-8.42,4.50,-1.29,2.06,-0.38,-0.27,-60.62,-32.97,0.8525112.00,-7.95,4.55,-2.22,3.58,0.34,0.11,-60.62,-32.97,0.8525163.00,-7.17,4.15,-4.84,0.91,0.04,0.01,-60.62,-32.97,0.8525214.00,-8.11,5.28,-3.14,-0.19,-0.92,0.33,-60.80,-35.26,7.1325265.00,-8.03,5.80,-1.61,1.30,-0.64,0.04,-60.80,-35.26,7.1325315.00,-7.74,4.89,-1.34,1.87,-0.36,0.02,-60.80,-35.26,7.1325366.00,-7.45,4.71,-1.84,1.18,-0.04,0.36,-60.97,-35.79,6.9625417.00,-7.56,5.58,-2.40,1.47,0.04,0.51,-60.97,-35.79,6.9625468.00,-7.37,5.37,-2.74,2.06,0.17,0.15,-59.04,-38.08,10.8725518.00,-7.18,4.60,-3.38,0.30,-0.04,-0.18,-59.04,-38.08,10.8725569.00,-7.33,3.50,-3.01,0.96,-0.06,-0.04,-59.21,-37.90,12.7425620.00,-7.38,4.28,-3.07,-1.23,0.83,0.84,-59.21,-37.90,12.7425671.00,-6.14,7.68,-4.83,-2.67,0.70,1.17,-59.21,-37.90,12.7425722.00,-7.35,9.79,-3.25,-1.63,0.49,0.82,-57.11,-42.49,12.0625772.00,-6.22,6.06,-5.18,0.27,1.54,-0.38,-57.11,-42.49,12.0625823.00,-5.26,1.92,-4.67,1.01,1.94,-0.17,-55.35,-40.72,17.4925874.00,-7.21,5.46,-7.70,0.37,2.29,0.20,-55.35,-40.72,17.4925925.00,-5.86,2.80,-9.01,0.68,1.64,-0.39,-55.35,-40.72,17.4925976.00,-6.78,2.25,-8.34,1.17,1.29,-0.53,-53.94,-38.26,26.6726027.00,-5.03,1.09,-9.63,0.37,1.45,0.14,-53.94,-38.26,26.6726077.00,-4.54,4.02,-8.96,1.03,1.44,0.75,-48.67,-35.79,35.8426128.00,-3.13,5.20,-10.52,0.62,0.99,-0.53,-48.67,-35.79,35.8426179.00,-2.91,2.41,-9.53,0.84,0.94,-0.70,-48.67,-35.79,35.8426230.00,-2.34,0.72,-10.01,1.33,1.13,-0.05,-44.28,-31.38,40.7626281.00,-2.13,1.93,-10.81,0.15,0.66,0.33,-44.28,-31.38,40.7626331.00,-2.17,1.31,-9.18,1.04,0.07,0.19,-41.12,-27.85,43.4826382.00,-2.22,0.71,-8.62,1.26,0.19,0.48,-41.12,-27.85,43.4826433.00,-1.72,1.11,-8.37,0.65,0.72,0.76,-41.12,-27.85,43.4826484.00,0.21,0.65,-12.14,-1.73,0.70,0.32,-36.37,-24.51,45.6926535.00,0.11,4.90,-10.70,-2.68,0.56,1.32,-36.37,-24.51,45.6926586.00,-0.09,5.04,-9.99,1.85,0.69,0.03,-32.15,-34.03,44.6726636.00,-0.79,1.09,-8.53,3.33,-0.23,-0.41,-32.15,-34.03,44.6726687.00,-1.94,-0.18,-9.92,1.46,-0.07,0.61,-32.15,-34.03,44.6726738.00,-0.90,0.27,-11.65,-0.24,-0.31,0.27,-31.10,-19.57,49.7726789.00,0.74,-1.70,-9.71,2.46,-0.90,-0.56,-31.10,-19.57,49.7726840.00,-1.62,-1.61,-7.30,0.33,-0.40,1.03,-34.61,-12.87,48.0726891.00,-0.69,-1.78,-10.73,-3.07,2.15,0.73,-34.61,-12.87,48.0726941.00,0.63,0.55,-10.35,0.67,-0.01,0.70,-27.94,-24.86,48.4126992.00,-1.43,0.12,-10.47,0.66,-1.29,0.46,-27.94,-24.86,48.4127043.00,-0.89,1.05,-10.11,-0.02,-0.12,0.13,-27.94,-24.86,48.4127094.00,-0.34,0.26,-10.20,-0.02,-0.03,-0.02,-30.75,-23.45,49.7727145.00,-0.38,0.39,-10.20,-0.01,-0.02,-0.01,-30.75,-23.45,49.7727196.00,-0.39,0.36,-10.18,-0.01,-0.02,-0.01,-30.75,-23.45,49.7727247.00,-0.33,0.31,-10.19,0.00,-0.01,-0.01,-28.82,-23.62,49.2627298.00,-0.33,0.29,-10.17,0.00,-0.01,-0.01,-28.82,-23.62,49.2627349.00,-0.32,0.33,-10.21,-0.00,-0.01,-0.01,-29.69,-23.09,49.4327400.00,-0.34,0.32,-10.20,-0.00,-0.01,-0.01,-29.69,-23.09,49.4327451.00,-0.34,0.31,-10.20,-0.00,-0.01,-0.01,-30.40,-22.74,49.0927502.00,-0.32,0.32,-10.21,-0.00,-0.01,-0.01,-30.40,-22.74,49.0927552.00,-0.34,0.32,-10.18,-0.00,-0.01,-0.01,-30.40,-22.74,49.0927604.00,-0.37,0.30,-10.12,-0.00,-0.01,-0.01,-29.52,-23.62,49.6027655.00,-0.34,0.35,-10.21,0.00,-0.01,-0.01,-29.52,-23.62,49.6027705.00,-0.34,0.31,-10.24,0.00,-0.01,-0.01,-29.87,-22.92,48.2427756.00,-0.34,0.32,-10.18,-0.00,-0.01,-0.01,-29.87,-22.92,48.2427807.00,-0.34,0.32,-10.20,-0.00,-0.01,-0.01,-29.87,-22.92,48.2427858.00,-0.29,0.11,-10.14,-0.03,-0.02,-0.02,-31.63,-23.27,48.5827909.00,-0.67,1.39,-10.03,-0.33,-0.11,-0.85,-31.63,-23.27,48.5827960.00,-0.80,0.33,-9.58,-0.13,-0.08,-1.35,-31.63,-24.33,49.6028011.00,0.01,0.47,-10.61,-0.33,-0.18,-0.06,-31.63,-24.33,49.6028062.00,-0.40,0.60,-10.78,-0.43,-1.15,-0.03,-33.21,-25.92,48.0728113.00,-1.33,1.52,-10.41,0.04,-0.06,0.20,-33.21,-25.92,48.0728164.00,-1.01,0.80,-10.34,-0.35,0.11,0.24,-33.21,-25.92,48.0728215.00,-1.22,1.78,-9.74,-0.08,0.04,-0.11,-35.32,-26.27,46.7128266.00,-0.67,1.89,-10.58,0.18,0.60,0.61,-35.32,-26.27,46.7128317.00,-0.29,1.85,-9.72,0.20,0.55,0.46,-35.32,-26.27,46.7128368.00,-1.28,0.76,-10.10,0.98,0.37,0.35,-30.05,-26.97,49.0928419.00,-0.56,0.97,-10.07,0.45,0.17,-0.06,-30.05,-26.97,49.0928470.00,0.02,0.44,-9.72,-0.09,0.27,-0.28,-29.87,-24.33,49.2628521.00,0.19,0.71,-10.41,0.08,0.44,-0.15,-29.87,-24.33,49.2628572.00,0.23,0.65,-10.34,0.13,0.33,0.44,-27.76,-23.27,46.8828623.00,0.48,0.67,-10.37,0.20,0.25,0.29,-27.76,-23.27,46.8828674.00,0.52,0.32,-10.09,0.07,0.06,0.18,-27.76,-23.27,46.8828725.00,0.51,0.40,-10.15,0.14,0.14,-0.08,-26.53,-22.04,47.7328776.00,0.24,0.48,-9.96,0.17,0.12,-0.03,-26.53,-22.04,47.7328827.00,0.55,0.34,-10.15,-0.04,-0.05,-0.32,-25.48,-22.39,45.3528878.00,1.10,0.64,-10.39,-0.25,-0.18,0.04,-25.48,-22.39,45.3528929.00,0.09,0.35,-9.90,-0.24,-0.21,0.33,-25.48,-22.39,45.3528980.00,-0.72,0.84,-10.30,-0.20,-0.19,0.02,-27.76,-23.27,51.6429031.00,0.49,-0.10,-9.78,0.58,0.51,-0.11,-27.76,-23.27,51.6429082.00,0.79,2.48,-12.39,-0.71,-0.35,-0.04,-26.18,-23.80,46.0329133.00,0.60,0.36,-10.33,0.12,-0.08,0.11,-26.18,-23.80,46.0329184.00,0.14,0.90,-10.22,0.31,-0.02,-0.08,-26.18,-23.80,46.0329235.00,0.47,-0.15,-10.22,0.15,0.01,-0.19,-25.65,-22.57,48.9229286.00,0.25,0.28,-10.16,0.01,0.00,0.28,-25.65,-22.57,48.9229337.00,0.41,0.20,-10.17,0.03,0.05,0.21,-27.24,-21.33,48.7529388.00,-0.06,0.45,-10.16,-0.01,-0.20,-0.04,-27.24,-21.33,48.7529439.00,0.34,0.11,-10.24,0.07,-0.07,0.01,-27.24,-21.33,48.7529490.00,0.34,0.11,-10.08,0.00,-0.01,-0.01,-26.88,-22.39,48.4129541.00,0.36,0.31,-10.28,-0.00,-0.01,-0.01,-26.88,-22.39,48.4129592.00,0.35,0.22,-10.20,-0.00,-0.01,-0.01,-27.06,-21.16,48.5829643.00,0.38,0.18,-10.18,0.00,-0.01,-0.01,-27.06,-21.16,48.5829694.00,0.38,0.21,-10.19,-0.00,-0.01,-0.01,-27.06,-21.16,48.5829745.00,0.38,0.20,-10.18,-0.00,-0.01,-0.01,-27.06,-22.92,48.2429796.00,0.38,0.21,-10.19,0.00,-0.01,-0.01,-27.06,-22.92,48.2429847.00,0.37,0.21,-10.19,0.00,-0.01,-0.01,-26.53,-21.33,48.4129899.00,0.37,0.18,-10.18,0.00,-0.01,-0.01,-26.53,-21.33,48.4129950.00,0.40,0.24,-10.21,-0.00,-0.01,-0.01,-26.71,-22.21,48.9230001.00,0.30,0.33,-10.18,0.03,-0.01,0.00,-26.71,-22.21,48.9230052.00,-0.70,0.69,-10.35,-0.12,0.06,-0.63,-26.71,-22.21,48.9230103.00,2.60,-0.42,-10.13,0.02,-0.06,-1.32,-26.53,-21.33,48.0730154.00,0.67,-0.60,-10.08,-0.08,-0.04,0.14,-26.53,-21.33,48.0730205.00,0.17,0.93,-10.28,0.01,-0.02,0.46,-27.24,-22.74,49.0930256.00,0.39,0.30,-10.14,-0.02,-0.00,-0.12,-27.24,-22.74,49.0930307.00,0.40,0.50,-10.12,0.00,-0.01,0.08,-27.24,-22.74,49.0930358.00,0.15,0.27,-10.14,-0.01,-0.01,0.11,-27.94,-22.39,48.7530409.00,0.43,0.39,-10.15,-0.08,-0.02,0.08,-27.94,-22.39,48.7530460.00,0.32,0.50,-10.22,-0.10,-0.02,0.12,-27.41,-22.92,50.2830512.00,0.35,0.35,-10.16,-0.06,-0.02,0.03,-27.41,-22.92,50.2830563.00,0.35,0.58,-10.21,-0.11,-0.03,-0.03,-27.41,-22.92,50.2830614.00,0.28,0.53,-10.18,0.00,0.00,-0.01,-28.11,-24.68,49.2630665.00,0.16,0.48,-10.16,-0.03,0.02,0.18,-28.11,-24.68,49.2630716.00,0.49,1.28,-10.78,-0.12,0.03,0.01,-25.83,-24.15,48.0730767.00,0.42,0.25,-10.14,0.32,0.03,-0.05,-25.83,-24.15,48.0730818.00,0.36,0.30,-10.18,-0.01,-0.03,0.01,-25.83,-24.15,48.0730869.00,0.40,0.48,-10.21,-0.00,-0.01,-0.08,-26.18,-23.45,51.1330920.00,0.38,0.43,-10.24,-0.04,0.02,-0.02,-26.18,-23.45,51.1330971.00,0.34,0.34,-10.18,-0.00,-0.03,-0.10,-27.24,-21.68,49.4331022.00,0.30,0.38,-10.16,-0.05,-0.03,-0.09,-27.24,-21.68,49.4331073.00,0.32,0.49,-10.20,0.02,0.02,0.00,-27.24,-21.68,49.4331124.00,0.44,0.36,-10.17,-0.02,0.13,0.06,-27.06,-23.27,48.9231176.00,0.47,0.53,-10.27,0.13,0.05,0.05,-27.06,-23.27,48.9231227.00,0.46,0.15,-10.09,0.29,0.03,-0.08,-26.71,-22.92,49.6031278.00,0.52,0.14,-10.15,0.07,0.01,-0.00,-26.71,-22.92,49.6031329.00,0.51,0.20,-10.09,-0.06,-0.02,-0.20,-25.65,-22.57,48.5831380.00,0.41,0.38,-10.27,-0.07,-0.04,0.07,-25.65,-22.57,48.5831431.00,0.52,-0.34,-9.90,0.33,-0.15,-0.32,-25.65,-22.57,48.5831482.00,0.24,0.20,-10.33,-0.09,-0.06,-0.05,-28.64,-23.09,51.4731533.00,0.71,0.06,-10.27,-0.46,0.09,0.17,-28.64,-23.09,51.4731585.00,0.22,-0.43,-10.03,0.50,-0.01,-0.31,-26.71,-23.09,51.4731636.00,0.51,-0.20,-10.08,0.13,0.36,0.17,-26.71,-22.21,49.9431687.00,0.71,-0.21,-9.74,-0.40,-0.15,0.33,-26.71,-22.21,49.9431738.00,0.60,0.55,-10.47,-0.75,-0.58,-0.13,-26.36,-22.57,46.8831789.00,-2.22,-0.32,-10.02,0.02,-0.00,-0.15,-26.36,-22.57,46.8831840.00,0.37,0.62,-10.28,-0.01,-0.01,-0.06,-28.11,-22.57,48.2431891.00,0.35,0.39,-10.16,0.16,-0.00,0.12,-28.11,-22.57,48.2431943.00,0.40,0.38,-10.27,0.07,-0.02,0.06,-28.11,-22.57,48.2431994.00,0.34,0.35,-10.20,0.08,-0.00,-0.16,-26.18,-22.04,48.7532045.00,0.38,0.15,-10.09,-0.02,-0.05,-0.10,-26.18,-22.04,48.7532096.00,0.38,0.14,-10.14,0.01,-0.00,-0.01,-26.88,-22.74,49.0932147.00,0.34,0.28,-10.19,-0.01,-0.02,-0.01,-26.88,-22.74,49.0932199.00,0.35,0.26,-10.17,-0.01,-0.01,-0.01,-26.88,-22.74,49.0932250.00,0.39,0.22,-10.19,0.00,-0.01,-0.01,-26.53,-22.39,48.0732301.00,0.37,0.23,-10.17,0.00,-0.01,-0.01,-26.53,-22.39,48.0732352.00,0.37,0.24,-10.19,-0.00,-0.01,-0.01,-26.53,-21.33,48.4132404.00,0.37,0.24,-10.16,0.00,-0.01,-0.01,-26.53,-21.33,48.4132455.00,0.37,0.23,-10.17,0.00,-0.01,-0.01,-26.53,-21.33,48.4132506.00,0.36,0.23,-10.19,0.00,-0.01,-0.01,-26.88,-22.74,50.4532557.00,0.37,0.22,-10.19,0.00,-0.01,-0.01,-26.88,-22.74,50.4532609.00,0.18,0.57,-10.21,-0.00,-0.01,-0.10,-26.88,-22.04,48.4132660.00,0.68,0.11,-10.31,0.03,0.06,-0.33,-26.88,-22.04,48.4132711.00,0.28,0.29,-10.17,0.02,-0.05,-0.01,-27.06,-21.86,49.6032762.00,0.56,0.10,-10.21,0.00,0.03,-0.00,-27.06,-21.86,49.6032814.00,0.25,0.34,-10.16,-0.04,-0.05,-0.01,-27.06,-21.86,49.6032865.00,0.34,0.27,-10.17,0.01,-0.01,-0.01,-25.65,-22.57,48.9232916.00,0.31,0.26,-10.14,-0.01,-0.01,-0.00,-25.65,-22.57,48.9232967.00,0.42,0.18,-10.21,0.00,-0.00,-0.04,-27.76,-21.51,47.9033018.00,0.41,0.24,-10.20,0.00,0.00,-0.00,-27.76,-21.51,47.9033070.00,0.43,0.26,-10.23,0.01,-0.00,-0.01,-27.76,-21.51,47.9033121.00,0.39,0.23,-10.22,0.00,-0.01,-0.01,-26.18,-22.39,47.7333172.00,0.38,0.24,-10.16,-0.00,-0.01,-0.01,-26.18,-22.39,47.7333223.00,0.48,0.13,-10.22,-0.03,-0.03,0.09,-26.01,-21.86,47.9033275.00,0.31,0.30,-10.20,-0.01,-0.01,0.10,-26.01,-21.86,47.9033326.00,0.33,0.28,-10.20,-0.03,-0.01,0.00,-26.01,-21.86,47.9033377.00,0.38,0.14,-10.19,-0.01,-0.03,-0.11,-27.06,-23.27,49.2633428.00,0.38,0.27,-10.21,-0.03,-0.01,-0.01,-27.06,-23.27,49.2633480.00,0.43,0.08,-10.09,-0.06,-0.03,-0.04,-26.88,-21.33,47.3933531.00,0.17,0.33,-10.28,0.15,0.03,0.32,-26.88,-21.33,47.3933582.00,0.21,0.49,-10.17,-0.01,0.01,0.10,-26.88,-21.33,47.3933634.00,0.48,0.23,-10.11,-0.02,-0.04,-0.44,-26.53,-22.04,48.7533685.00,0.30,0.40,-10.27,-0.08,-0.08,-0.18,-26.53,-22.04,48.7533736.00,0.37,0.28,-10.22,0.17,0.09,-0.15,-28.11,-21.51,47.9033788.00,0.39,0.11,-10.17,0.17,0.08,0.14,-28.11,-21.51,47.9033839.00,0.21,-0.03,-10.17,0.10,0.08,0.52,-26.71,-20.45,48.2433890.00,-0.45,1.33,-9.80,-0.01,-0.00,-0.62,-26.71,-20.45,48.2433941.00,0.85,-0.56,-10.45,-0.41,-0.54,-1.44,-26.71,-20.45,48.2433993.00,0.08,0.86,-10.44,0.17,0.20,0.83,-28.11,-21.86,50.2834044.00,0.39,0.11,-9.89,0.66,0.22,-0.07,-28.11,-21.86,50.2834095.00,0.27,0.17,-10.31,-0.10,0.01,0.39,-27.41,-22.57,46.8834146.00,0.40,-0.03,-10.16,0.08,-0.02,0.12,-27.41,-22.57,46.8834198.00,0.65,-0.14,-9.92,-0.33,-0.10,-0.41,-27.41,-22.57,46.8834249.00,0.34,0.43,-10.31,0.11,0.02,0.11,-26.18,-19.92,47.3934300.00,0.51,-0.21,-10.00,0.25,0.01,0.16,-26.18,-19.92,47.3934352.00,0.34,0.30,-10.31,-0.02,0.12,0.20,-26.71,-21.16,46.8834403.00,0.19,0.23,-9.94,-0.15,-0.14,-0.20,-26.71,-21.16,46.8834455.00,0.57,0.53,-10.35,-0.25,-0.11,-0.15,-26.71,-21.16,46.8834506.00,-1.10,-0.44,-10.26,-0.02,-0.01,-0.07,-27.41,-21.16,48.5834557.00,-0.06,0.49,-9.90,0.07,-0.00,0.00,-27.41,-21.16,48.5834609.00,0.45,0.37,-10.25,-0.02,-0.02,0.07,-27.41,-22.92,48.9234660.00,0.26,0.34,-10.13,0.02,-0.08,0.05,-27.41,-22.92,48.9234711.00,0.42,0.39,-10.30,0.01,0.05,0.08,-28.11,-23.27,47.9034763.00,0.35,0.29,-10.16,-0.01,0.01,0.01,-28.11,-23.27,47.9034814.00,0.37,0.31,-10.19,-0.00,-0.02,0.01,-28.11,-23.27,47.9034866.00,0.34,0.34,-10.19,0.01,-0.01,0.04,-28.11,-23.27,47.9034917.00,0.40,0.37,-10.21,-0.00,-0.01,-0.01,-28.11,-23.27,47.9034968.00,0.36,0.31,-10.19,0.01,-0.01,0.03,-27.41,-22.21,47.2235020.00,0.31,0.37,-10.18,0.00,0.00,0.00,-27.41,-22.21,47.2235071.00,0.31,0.55,-10.19,-0.03,0.00,-0.40,-27.41,-22.21,47.2235122.00,0.53,0.14,-10.21,-0.04,-0.02,-0.48,-26.01,-23.98,48.9235174.00,0.36,0.45,-10.25,0.02,-0.02,-0.04,-26.01,-23.98,48.9235225.00,0.61,0.28,-10.31,0.19,0.06,0.01,-28.11,-21.51,48.9235277.00,0.35,0.27,-10.15,-0.01,-0.04,0.02,-28.11,-21.51,48.9235328.00,0.39,0.32,-10.24,-0.01,-0.01,0.09,-28.11,-21.51,48.9235379.00,0.51,0.23,-10.19,-0.03,-0.04,-0.00,-27.76,-21.86,47.9035431.00,0.30,0.28,-10.17,-0.01,-0.00,0.04,-27.76,-21.86,47.9035482.00,0.45,0.32,-10.18,-0.03,-0.01,0.09,-27.24,-21.68,48.7535534.00,0.16,0.35,-10.17,0.02,-0.00,-0.13,-27.24,-21.68,48.7535585.00,0.06,0.09,-10.20,-0.02,0.01,-0.09,-27.24,-21.68,48.7535637.00,0.30,0.40,-10.22,-0.07,-0.03,0.06,-26.88,-23.45,48.4135688.00,0.28,0.49,-10.25,-0.04,0.00,0.00,-26.88,-23.45,48.4135739.00,0.20,0.24,-10.17,0.02,-0.01,-0.11,-27.76,-22.21,47.9035791.00,0.32,0.37,-10.17,-0.03,0.01,0.06,-27.76,-22.21,47.9035842.00,0.28,0.62,-10.24,-0.14,-0.06,0.05,-27.76,-22.21,47.9035894.00,0.41,0.16,-10.14,-0.01,-0.01,0.01,-27.76,-22.92,49.6035945.00,0.29,0.68,-10.28,-0.06,-0.02,0.07,-27.76,-22.92,49.6035996.00,0.24,0.34,-10.17,0.08,-0.00,-0.11,-26.71,-23.27,47.9036048.00,0.34,0.45,-10.23,-0.04,0.01,-0.01,-26.71,-23.27,47.9036099.00,0.32,0.44,-10.23,-0.02,-0.01,-0.11,-27.06,-23.27,48.2436151.00,0.41,0.45,-10.19,0.00,0.01,-0.13,-27.06,-23.27,48.2436202.00,0.24,0.53,-10.18,0.02,0.01,-0.10,-27.06,-23.27,48.2436254.00,0.32,0.43,-10.18,-0.00,0.01,0.01,-27.06,-23.27,49.9436305.00,0.31,0.50,-10.17,-0.00,-0.01,-0.04,-27.06,-23.27,49.9436357.00,0.35,0.43,-10.21,0.01,0.00,0.02,-27.59,-22.39,48.0736408.00,0.35,0.44,-10.19,0.02,0.01,0.03,-27.59,-22.39,48.0736460.00,0.38,0.33,-10.13,0.19,0.03,-0.01,-27.59,-22.39,48.0736511.00,0.44,0.29,-10.15,0.14,0.01,-0.04,-25.30,-23.62,47.5636562.00,0.40,0.05,-10.06,-0.07,-0.01,0.03,-25.30,-23.62,47.5636614.00,0.32,0.44,-10.33,-0.08,0.04,0.23,-27.59,-22.74,46.7136665.00,0.45,0.38,-10.14,0.01,0.02,0.02,-27.59,-22.74,46.7136717.00,0.67,0.50,-10.38,0.20,-0.01,-0.10,-25.48,-21.33,45.6936768.00,0.36,-0.59,-9.78,0.47,0.02,-0.25,-25.48,-21.33,45.6936820.00,0.11,0.77,-10.48,-0.27,-0.01,0.20,-25.48,-21.33,45.6936871.00,0.70,1.41,-11.83,-0.34,-0.23,-0.01,-26.53,-21.68,45.0136923.00,0.41,0.22,-10.22,-0.06,-0.10,-0.27,-26.53,-21.68,45.0136974.00,0.33,0.39,-10.24,0.00,-0.01,-0.01,-27.94,-22.74,47.7337026.00,0.42,0.49,-10.35,-0.04,-0.00,0.00,-27.94,-22.74,47.7337077.00,0.47,0.47,-10.13,0.03,-0.01,0.10,-27.94,-22.74,47.7337128.00,0.22,0.34,-10.21,-0.01,-0.01,0.08,-28.82,-22.92,48.5837180.00,0.31,0.37,-10.17,-0.02,0.00,-0.07,-28.82,-22.92,48.5837232.00,0.43,0.35,-10.21,0.01,-0.01,-0.03,-26.53,-21.68,49.4337283.00,0.29,0.37,-10.19,0.04,-0.01,0.02,-26.53,-21.68,49.4337334.00,0.36,0.31,-10.14,0.03,-0.01,0.02,-26.53,-21.68,49.4337386.00,0.29,0.35,-10.18,0.01,-0.01,0.03,-27.76,-22.57,47.5637438.00,0.32,0.34,-10.19,0.00,-0.01,0.00,-27.76,-22.57,47.5637489.00,0.33,0.36,-10.22,-0.00,-0.01,-0.00,-26.71,-23.62,48.2437540.00,0.32,0.33,-10.18,-0.01,-0.01,-0.01,-26.71,-23.62,48.2437592.00,0.36,0.36,-10.22,-0.01,-0.01,-0.02,-28.11,-21.86,48.5837644.00,0.32,0.33,-10.18,-0.01,-0.00,-0.03,-28.11,-21.86,48.5837695.00,0.32,0.28,-10.14,0.01,-0.01,-0.02,-28.11,-21.86,48.5837746.00,0.36,0.45,-10.29,-0.02,-0.01,-0.02,-27.94,-22.74,48.0737798.00,0.30,0.33,-10.16,0.04,-0.03,-0.02,-27.94,-22.74,48.0737850.00,0.28,0.25,-10.08,-0.03,-0.01,-0.10,-27.94,-22.74,48.0737901.00,0.33,0.46,-10.25,-0.02,-0.01,-0.04,-26.88,-22.74,48.4137953.00,0.35,0.43,-10.22,-0.03,0.01,0.03,-26.88,-22.74,48.4138004.00,0.34,0.56,-10.17,0.01,-0.01,0.05,-27.41,-21.51,49.6038056.00,0.30,0.35,-10.17,0.02,-0.06,-0.02,-27.41,-21.51,49.6038107.00,0.28,0.63,-10.41,-0.07,0.03,0.00,-28.99,-22.04,48.7538159.00,0.32,0.44,-10.21,0.01,-0.03,-0.05,-28.99,-22.04,48.7538210.00,0.27,0.29,-10.15,0.09,-0.08,-0.12,-28.99,-22.04,48.7538262.00,0.32,0.27,-10.18,0.02,0.00,-0.08,-28.29,-20.63,48.4138314.00,0.30,0.20,-10.09,0.03,-0.02,-0.04,-28.29,-20.63,48.4138365.00,0.40,0.22,-10.15,-0.04,0.00,0.00,-28.46,-22.57,46.2038417.00,0.29,0.35,-10.17,0.03,-0.01,-0.02,-28.46,-22.57,46.2038468.00,0.36,0.28,-10.14,0.03,-0.01,-0.02,-28.46,-22.57,46.2038520.00,0.15,0.64,-10.27,0.02,-0.05,0.11,-26.53,-22.04,48.0738572.00,0.22,0.05,-10.06,0.29,-0.01,-0.06,-26.53,-22.04,48.0738623.00,0.25,0.29,-10.19,0.19,-0.01,-0.12,-27.59,-20.98,50.1138675.00,0.18,0.46,-10.35,-0.06,0.07,0.07,-27.59,-20.98,50.1138726.00,0.36,0.07,-10.13,0.06,-0.03,-0.16,-27.59,-20.98,50.1138778.00,0.20,-0.07,-10.43,-0.05,0.15,0.17,-27.76,-21.51,50.2838830.00,0.61,0.37,-10.06,-0.04,0.07,0.18,-27.76,-21.51,50.2838881.00,0.25,0.19,-10.15,-0.08,-0.19,-0.19,-27.24,-21.33,47.7338933.00,0.48,-0.31,-9.98,0.10,-0.14,-0.29,-27.24,-21.33,47.7338985.00,0.30,0.33,-10.34,0.04,0.04,0.03,-27.94,-22.74,50.4539036.00,0.25,0.10,-10.21,0.09,0.21,0.04,-27.94,-22.74,50.4539088.00,0.17,0.04,-10.09,-0.05,0.23,0.10,-27.94,-22.74,50.4539140.00,0.11,0.56,-9.88,-0.12,-0.22,-0.11,-26.88,-22.04,44.6739191.00,0.53,-0.39,-10.06,0.32,-0.32,-0.43,-26.88,-22.04,44.6739243.00,0.03,-0.00,-10.39,0.17,0.10,0.12,-27.24,-20.98,49.4339294.00,0.79,-0.06,-9.84,-0.32,0.08,0.32,-27.24,-20.98,49.4339346.00,0.31,0.54,-10.29,-0.40,-0.30,-0.32,-27.24,-20.98,49.4339398.00,-0.19,0.30,-10.24,-0.07,-0.09,-0.03,-28.46,-21.51,47.5639449.00,0.25,0.44,-10.21,-0.01,-0.02,0.00,-28.46,-21.51,47.5639501.00,0.25,0.48,-10.19,0.01,-0.03,-0.00,-28.29,-23.09,47.3939553.00,0.02,0.31,-10.19,0.04,-0.06,-0.00,-28.29,-23.09,47.3939604.00,0.19,0.40,-10.18,-0.01,-0.02,0.02,-28.11,-22.21,47.5639656.00,0.20,0.42,-10.17,-0.02,0.00,0.03,-28.11,-22.21,47.5639708.00,0.24,0.51,-10.24,-0.01,-0.00,0.01,-28.11,-22.21,47.5639760.00,0.22,0.40,-10.20,-0.02,0.01,0.01,-27.41,-23.62,47.2239811.00,0.23,0.46,-10.22,-0.01,0.01,0.00,-27.41,-23.62,47.2239863.00,0.23,0.46,-10.23,-0.01,0.01,0.01,-28.64,-22.74,48.0739915.00,0.24,0.45,-10.22,0.00,-0.01,-0.04,-28.64,-22.74,48.0739966.00,0.23,0.43,-10.21,-0.00,-0.01,-0.03,-28.64,-22.74,48.0740018.00,0.24,0.44,-10.23,0.01,-0.01,-0.02,-28.46,-21.86,46.8840070.00,0.21,0.37,-10.14,0.01,-0.02,-0.02,-28.46,-21.86,46.8840121.00,0.22,0.46,-10.21,0.00,-0.01,-0.00,-28.11,-21.86,47.2240173.00,0.22,0.46,-10.21,0.01,-0.02,-0.01,-28.11,-21.86,47.2240225.00,0.21,0.43,-10.20,0.00,-0.00,-0.01,-28.11,-21.86,47.2240276.00,0.22,0.40,-10.19,0.02,-0.02,-0.02,-27.41,-23.62,46.8840328.00,0.20,0.43,-10.19,0.00,-0.01,-0.01,-27.41,-23.62,46.8840380.00,0.21,0.43,-10.19,0.01,-0.02,-0.02,-27.06,-22.21,46.8840431.00,0.22,0.44,-10.22,-0.00,-0.01,-0.02,-27.06,-22.21,46.8840483.00,0.23,0.43,-10.22,0.01,-0.01,-0.01,-27.94,-23.45,46.3740535.00,0.22,0.41,-10.20,-0.01,-0.01,-0.02,-27.94,-23.45,46.3740586.00,0.20,0.42,-10.19,0.01,-0.01,-0.01,-27.94,-23.45,46.3740638.00,0.19,0.43,-10.20,0.01,-0.01,-0.02,-29.17,-21.86,46.8840690.00,0.20,0.39,-10.17,0.00,-0.01,-0.03,-29.17,-21.86,46.8840741.00,0.21,0.42,-10.21,0.00,-0.01,-0.02,-27.24,-23.45,46.7140793.00,0.20,0.40,-10.20,-0.00,-0.01,-0.01,-27.24,-23.45,46.7140845.00,0.19,0.42,-10.18,0.00,-0.01,-0.02,-27.24,-23.45,46.7140897.00,0.21,0.42,-10.20,0.00,-0.01,-0.01,-27.76,-22.57,46.8840948.00,0.18,0.38,-10.20,0.00,-0.01,-0.01,-27.76,-22.57,46.8841000.00,0.21,0.41,-10.22,0.00,-0.01,-0.01,-28.82,-23.27,47.2241052.00,0.21,0.41,-10.19,0.01,-0.01,-0.01,-28.82,-23.27,47.2241104.00,0.19,0.40,-10.18,0.00,-0.01,-0.01,-28.82,-23.27,47.2241155.00,0.20,0.41,-10.18,0.01,-0.01,-0.01,-28.64,-22.39,46.7141207.00,0.19,0.39,-10.18,-0.00,-0.01,-0.01,-28.64,-22.39,46.7141259.00,0.20,0.40,-10.19,0.00,-0.01,-0.01,-26.88,-22.04,48.0741311.00,0.19,0.39,-10.21,0.00,-0.01,-0.01,-26.88,-22.04,48.0741363.00,0.18,0.40,-10.22,0.00,-0.01,-0.01,-27.59,-22.74,46.0341414.00,0.20,0.41,-10.20,-0.00,-0.01,-0.01,-27.59,-22.74,46.0341466.00,0.20,0.38,-10.20,0.00,-0.01,-0.01,-27.59,-22.74,46.0341518.00,0.20,0.41,-10.20,-0.00,-0.01,-0.01,-29.34,-22.39,47.0541570.00,0.20,0.40,-10.22,0.00,-0.01,-0.01,-29.34,-22.39,47.0541621.00,0.20,0.42,-10.22,0.00,-0.01,-0.01,-27.41,-22.57,47.2241673.00,0.20,0.41,-10.18,0.01,-0.01,-0.01,-27.41,-22.57,47.2241725.00,0.20,0.41,-10.21,0.00,-0.01,-0.01,-27.41,-22.57,47.2241777.00,0.20,0.40,-10.19,0.00,-0.01,-0.01,-28.29,-21.68,46.7141829.00,0.21,0.39,-10.19,-0.00,-0.01,-0.01,-28.29,-21.68,46.7141880.00,0.18,0.40,-10.21,-0.00,-0.01,-0.00,-27.76,-23.62,47.2241932.00,0.20,0.40,-10.19,-0.00,-0.01,-0.01,-27.76,-23.62,47.2241984.00,0.19,0.41,-10.19,-0.00,-0.01,-0.01,-28.46,-22.92,47.9042036.00,0.20,0.42,-10.19,-0.00,-0.01,-0.01,-28.46,-22.92,47.9042088.00,0.21,0.42,-10.18,0.00,-0.01,-0.01,-28.46,-22.92,47.9042139.00,0.20,0.41,-10.19,-0.00,-0.01,-0.01,-26.88,-21.68,47.3942191.00,0.20,0.41,-10.20,0.01,-0.01,-0.01,-26.88,-21.68,47.3942243.00,0.23,0.45,-10.24,-0.01,-0.00,-0.01,-27.94,-22.04,47.3942295.00,0.20,0.41,-10.19,0.01,-0.02,-0.02,-27.94,-22.04,47.3942347.00,0.19,0.41,-10.19,-0.01,0.00,-0.01,-27.94,-22.04,47.3942398.00,0.17,0.40,-10.18,-0.00,-0.01,-0.01,-28.82,-22.21,47.2242450.00,0.22,0.42,-10.19,0.00,-0.01,-0.01,-28.82,-22.21,47.2242502.00,0.19,0.38,-10.18,-0.00,-0.01,-0.01,-28.29,-22.74,47.7342554.00,0.22,0.42,-10.19,-0.02,0.01,-0.01,-28.29,-22.74,47.7342606.00,0.21,0.42,-10.16,0.01,-0.02,-0.02,-28.29,-22.74,47.7342658.00,0.24,0.45,-10.22,0.00,-0.01,-0.01,-28.64,-21.68,48.4142710.00,0.20,0.39,-10.16,-0.00,-0.01,-0.01,-28.64,-21.68,48.4142762.00,0.22,0.44,-10.22,-0.01,-0.00,-0.01,-29.34,-22.74,46.3742813.00,0.21,0.42,-10.20,-0.00,-0.02,-0.01,-29.34,-22.74,46.3742865.00,0.18,0.41,-10.20,0.00,-0.00,-0.01,-27.59,-23.45,46.3742917.00,0.20,0.46,-10.22,-0.01,-0.04,0.00,-27.59,-23.45,46.3742969.00,0.18,0.43,-10.18,0.01,-0.00,-0.02,-27.59,-23.45,46.3743021.00,0.19,0.37,-10.14,0.04,-0.00,-0.09,-29.87,-22.57,48.9243073.00,0.22,0.42,-10.24,0.01,-0.00,-0.04,-29.87,-22.57,48.9243125.00,0.22,0.42,-10.21,0.00,0.01,-0.00,-27.06,-22.21,47.9043176.00,0.23,0.38,-10.20,0.03,0.01,-0.02,-27.06,-22.21,47.9043228.00,0.28,0.36,-10.19,0.06,0.02,-0.01,-27.06,-22.21,47.9043280.00,0.23,0.15,-10.19,0.56,0.00,-0.31,-26.88,-22.74,47.3943332.00,0.22,-0.06,-10.10,0.30,-0.02,-0.31,-26.88,-22.74,47.3943384.00,-0.16,-0.29,-10.16,-0.12,0.10,0.16,-26.88,-20.98,46.7143436.00,0.75,0.31,-10.07,-0.45,0.07,0.39,-26.88,-20.98,46.7143487.00,-0.61,0.25,-10.42,0.40,-0.21,-0.35,-26.88,-20.98,46.7143539.00,0.16,-0.31,-10.21,0.17,0.30,0.20,-28.64,-21.68,48.0743591.00,0.41,0.16,-10.13,-0.13,0.15,0.20,-28.64,-21.68,48.0743643.00,0.00,0.50,-10.30,-0.71,-0.51,-0.36,-27.76,-21.86,44.5043695.00,-0.12,0.08,-10.30,-0.12,-0.04,-0.10,-27.76,-21.86,44.5043747.00,0.21,0.28,-10.21,0.01,-0.01,0.01,-27.94,-23.80,47.7343799.00,0.18,0.39,-10.18,0.02,-0.02,-0.00,-27.94,-23.80,47.7343851.00,0.22,0.27,-10.18,0.01,-0.02,-0.04,-27.94,-23.80,47.7343902.00,0.17,0.32,-10.19,-0.01,-0.01,-0.01,-27.94,-22.39,48.0743954.00,0.16,0.27,-10.14,-0.00,-0.01,-0.01,-27.94,-22.39,48.0744006.00,0.19,0.35,-10.20,-0.00,-0.01,-0.01,-28.29,-23.45,47.7344058.00,0.19,0.32,-10.18,0.00,-0.01,0.01,-28.29,-23.45,47.7344110.00,0.18,0.33,-10.20,-0.01,-0.01,0.00,-28.29,-23.45,47.7344162.00,0.22,0.38,-10.23,-0.02,0.00,-0.00,-27.94,-22.74,48.0744214.00,0.20,0.34,-10.19,0.00,-0.01,-0.01,-27.94,-22.74,48.0744266.00,0.18,0.32,-10.17,0.00,-0.01,-0.01,-28.46,-22.21,46.8844318.00,0.19,0.32,-10.19,-0.01,-0.00,-0.01,-28.46,-22.21,46.8844370.00,0.20,0.34,-10.20,0.00,-0.01,-0.01,-26.53,-22.04,47.3944421.00,0.23,0.38,-10.21,-0.02,-0.00,-0.01,-26.53,-22.04,47.3944473.00,0.18,0.31,-10.14,-0.00,-0.02,-0.01,-26.53,-22.04,47.3944525.00,0.20,0.39,-10.21,-0.01,-0.01,-0.01,-28.99,-20.98,47.7344577.00,0.22,0.38,-10.20,0.00,-0.01,-0.01,-28.99,-20.98,47.7344629.00,0.16,0.36,-10.17,0.04,-0.04,-0.02,-28.11,-21.86,47.9044681.00,0.12,0.31,-10.19,-0.01,-0.01,-0.02,-28.11,-21.86,47.9044733.00,0.22,0.40,-10.19,0.02,-0.01,-0.01,-28.11,-21.86,47.9044785.00,0.15,0.32,-10.18,0.02,-0.02,-0.02,-27.41,-20.80,46.8844837.00,0.11,0.21,-10.07,-0.02,0.02,0.03,-27.41,-20.80,46.8844889.00,0.12,0.17,-10.02,0.03,-0.03,-0.03,-27.76,-22.21,48.5844941.00,0.25,0.37,-10.21,0.00,-0.01,-0.02,-27.76,-22.21,48.5844993.00,0.20,0.33,-10.20,-0.00,0.00,-0.01,-27.76,-22.21,48.5845045.00,0.22,0.31,-10.17,0.01,-0.00,-0.02,-28.11,-22.21,47.5645097.00,0.20,0.31,-10.15,0.00,-0.00,-0.02,-28.11,-22.21,47.5645149.00,0.21,0.37,-10.20,0.00,-0.01,-0.01,-27.94,-21.33,47.3945201.00,0.21,0.35,-10.20,-0.00,-0.01,-0.01,-27.94,-21.33,47.3945253.00,0.20,0.38,-10.20,0.01,-0.02,-0.03,-27.94,-22.39,48.7545305.00,0.21,0.32,-10.20,0.01,-0.01,-0.02,-27.94,-22.39,48.7545358.00,0.19,0.32,-10.15,-0.02,-0.00,0.00,-27.94,-22.39,48.7545412.00,0.19,0.38,-10.21,-0.00,-0.02,0.00,-27.94,-22.39,48.7545463.00,0.21,0.37,-10.18,-0.00,-0.01,-0.02,-27.94,-22.39,48.7545513.00,0.20,0.36,-10.21,-0.00,-0.01,-0.02,-27.41,-22.57,47.5645563.00,0.21,0.38,-10.21,0.01,-0.01,-0.02,-27.41,-22.57,47.5645614.00,0.22,0.36,-10.21,0.01,-0.01,-0.02,-27.41,-22.57,47.5645664.00,0.20,0.32,-10.17,-0.01,-0.00,-0.01,-28.11,-23.27,48.9245715.00,0.21,0.36,-10.16,0.00,-0.00,-0.01,-28.11,-23.27,48.9245765.00,0.20,0.33,-10.21,-0.02,-0.01,-0.02,-28.46,-23.27,47.2245816.00,0.23,0.34,-10.18,-0.04,-0.01,-0.01,-28.46,-23.27,47.2245866.00,0.20,0.37,-10.18,0.04,-0.01,-0.06,-28.46,-23.27,47.2245917.00,0.22,0.36,-10.20,0.04,0.00,-0.06,-28.29,-23.45,49.0945968.00,0.22,0.38,-10.19,-0.00,-0.00,-0.00,-28.29,-23.45,49.0946018.00,0.21,0.38,-10.20,0.01,-0.01,-0.00,-27.24,-23.09,47.3946069.00,0.22,0.35,-10.17,-0.01,-0.01,-0.01,-27.24,-23.09,47.3946119.00,0.22,0.36,-10.18,0.01,-0.01,-0.00,-28.29,-22.04,47.3946170.00,0.22,0.38,-10.20,-0.01,-0.01,-0.01,-28.29,-22.04,47.3946220.00,0.23,0.36,-10.19,0.01,-0.01,-0.02,-28.29,-22.04,47.3946271.00,0.22,0.35,-10.18,0.01,-0.01,-0.01,-27.41,-21.51,48.2446322.00,0.22,0.33,-10.19,0.01,-0.01,-0.03,-27.41,-21.51,48.2446372.00,0.21,0.39,-10.21,-0.00,-0.01,-0.02,-27.41,-21.51,48.2446423.00,0.20,0.32,-10.19,-0.00,-0.01,-0.02,-27.94,-22.39,48.7546473.00,0.20,0.37,-10.20,-0.01,-0.01,-0.01,-27.94,-22.39,48.7546524.00,0.21,0.34,-10.18,0.01,-0.01,-0.02,-28.11,-21.86,46.8846574.00,0.22,0.34,-10.20,-0.01,-0.01,-0.02,-28.11,-21.86,46.8846625.00,0.21,0.34,-10.20,0.01,-0.01,-0.02,-28.99,-22.39,48.4146675.00,0.22,0.37,-10.28,-0.01,-0.01,-0.01,-28.99,-22.39,48.4146726.00,0.24,0.40,-10.31,-0.00,-0.01,-0.01,-28.99,-22.39,48.4146777.00,0.25,0.34,-10.25,0.01,-0.01,-0.02,-27.94,-22.04,47.7346827.00,0.20,0.35,-10.35,-0.00,0.01,0.00,-27.94,-22.04,47.7346878.00,0.25,0.35,-10.19,0.02,0.00,-0.01,-27.94,-22.04,47.7346929.00,0.23,0.36,-10.18,-0.00,-0.01,-0.02,-27.94,-23.09,47.3946979.00,0.23,0.34,-10.22,0.01,-0.01,-0.02,-27.94,-23.09,47.3947030.00,0.25,0.34,-10.17,0.00,-0.01,-0.02,-28.11,-22.21,46.8847080.00,0.37,0.34,-10.22,0.11,-0.05,-0.19,-28.11,-22.21,46.8847131.00,0.17,0.11,-10.16,0.14,-0.05,-0.17,-28.82,-21.86,48.2447181.00,0.25,0.26,-10.19,-0.03,0.05,-0.00,-28.82,-21.86,48.2447232.00,0.28,0.45,-10.17,-0.04,0.02,0.13,-28.82,-21.86,48.2447283.00,0.20,0.28,-10.22,-0.03,-0.03,-0.00,-30.57,-20.80,47.2247333.00,0.23,0.36,-10.22,0.06,-0.01,-0.00,-30.57,-20.80,47.2247384.00,0.22,0.17,-10.20,0.06,-0.02,0.04,-28.82,-21.86,47.2247435.00,0.24,0.24,-10.20,-0.03,-0.00,0.04,-28.82,-21.86,47.2247485.00,0.23,0.25,-10.18,-0.03,0.01,0.00,-28.82,-21.86,47.2247536.00,0.22,0.27,-10.20,-0.02,-0.02,-0.03,-28.82,-22.57,47.5647586.00,0.22,0.26,-10.16,0.00,-0.01,-0.03,-28.82,-22.57,47.5647637.00,0.24,0.22,-10.20,0.01,-0.01,-0.06,-27.59,-21.68,48.4147688.00,0.24,0.24,-10.17,0.03,-0.02,-0.09,-27.59,-21.68,48.4147738.00,0.21,0.28,-10.20,0.03,-0.04,-0.14,-27.59,-21.68,48.4147789.00,0.16,0.01,-10.10,0.17,0.03,-0.23,-28.64,-21.33,48.0747840.00,0.25,0.14,-10.16,-0.01,0.03,0.05,-28.64,-21.33,48.0747890.00,0.19,0.05,-10.15,0.06,-0.00,0.12,-29.17,-21.51,47.9047941.00,0.16,0.31,-10.16,0.05,-0.02,-0.05,-29.17,-21.51,47.9047992.00,0.15,-0.09,-10.13,0.05,-0.02,-0.12,-29.17,-21.51,47.9048042.00,0.14,0.00,-10.17,-0.06,0.05,0.16,-29.34,-19.92,47.7348093.00,0.20,0.52,-10.15,-0.21,-0.03,0.09,-29.34,-19.92,47.7348144.00,0.32,0.22,-10.21,-0.20,-0.04,0.04,-28.82,-21.51,44.8448194.00,0.73,0.66,-9.88,0.53,-0.09,-0.25,-28.82,-21.51,44.8448245.00,-0.17,0.06,-10.15,0.19,-0.03,-0.14,-28.82,-21.51,44.84