time,ax,ay,az,gx,gy,gz,mx,my,mz50.00,0.45,0.04,-10.19,-0.00,0.00,0.00,-26.01,-21.51,46.20101.00,0.44,0.01,-10.19,-0.00,0.00,0.00,-27.76,-21.86,45.18152.00,0.43,0.03,-10.18,-0.00,0.00,0.00,-27.76,-21.86,45.18204.00,0.43,0.03,-10.20,-0.00,0.00,0.00,-26.36,-21.51,44.50255.00,0.45,0.02,-10.20,-0.00,0.00,0.00,-26.36,-21.51,44.50306.00,0.46,0.03,-10.21,-0.00,-0.00,0.00,-26.36,-21.51,44.50357.00,0.44,0.03,-10.21,-0.00,-0.00,0.00,-26.88,-20.98,45.69409.00,0.42,0.04,-10.19,-0.00,-0.00,0.00,-26.88,-20.98,45.69460.00,0.44,0.02,-10.20,-0.00,-0.00,0.00,-27.24,-21.33,46.71511.00,0.44,0.02,-10.17,-0.00,0.00,0.00,-27.24,-21.33,46.71562.00,0.43,0.02,-10.18,-0.00,0.00,0.00,-27.24,-21.33,46.71614.00,0.44,0.03,-10.18,-0.00,0.00,0.00,-26.71,-21.51,45.52665.00,0.45,0.01,-10.18,-0.00,0.00,0.00,-26.71,-21.51,45.52716.00,0.43,0.02,-10.19,0.00,-0.00,0.00,-26.01,-22.21,45.86768.00,0.45,0.01,-10.19,-0.00,0.00,0.00,-26.01,-22.21,45.86819.00,0.44,0.02,-10.19,-0.00,0.00,0.00,-26.01,-22.21,45.86870.00,0.44,0.01,-10.16,0.00,0.00,0.00,-27.59,-22.04,45.69922.00,0.43,0.04,-10.16,-0.00,0.00,0.00,-27.59,-22.04,45.69973.00,0.42,-0.01,-10.19,0.00,-0.00,0.00,-26.71,-21.51,45.861025.00,0.45,0.04,-10.16,-0.00,-0.00,0.00,-26.71,-21.51,45.861076.00,0.44,0.01,-10.20,-0.00,-0.00,0.00,-26.71,-21.16,46.881127.00,0.43,0.01,-10.20,-0.00,0.00,0.00,-26.71,-21.16,46.881179.00,0.45,0.04,-10.19,-0.00,-0.00,0.00,-26.71,-21.16,46.881230.00,0.45,0.03,-10.19,-0.00,-0.00,0.00,-27.41,-22.57,44.501281.00,0.43,0.02,-10.14,-0.00,0.00,0.00,-27.41,-22.57,44.501333.00,0.42,-0.01,-10.14,0.00,-0.00,0.00,-26.18,-22.74,46.031384.00,0.46,0.01,-10.20,0.00,0.00,0.00,-26.18,-22.74,46.031436.00,0.45,0.03,-10.21,-0.00,0.00,0.00,-26.18,-22.74,46.031487.00,0.43,-0.01,-10.15,0.00,0.00,0.00,-26.01,-21.16,46.201538.00,0.43,-0.02,-10.12,0.00,-0.00,0.00,-26.01,-21.16,46.201590.00,0.45,0.05,-10.12,0.00,0.00,0.00,-28.11,-21.51,45.521641.00,0.43,-0.03,-10.06,0.00,-0.00,0.00,-28.11,-21.51,45.521692.00,0.43,-0.02,-10.15,0.00,-0.00,0.00,-26.88,-21.68,45.691744.00,0.44,0.02,-10.19,0.00,0.00,0.00,-26.88,-21.68,45.691795.00,0.42,0.03,-10.20,-0.00,-0.00,0.00,-26.88,-21.68,45.691846.00,0.45,0.03,-10.20,-0.00,0.00,0.00,-26.88,-20.98,45.691898.00,0.43,0.02,-10.16,-0.00,0.00,0.00,-26.88,-20.98,45.691950.00,0.46,0.02,-10.18,-0.00,0.00,0.00,-26.88,-20.98,45.692001.00,0.45,0.02,-10.20,0.00,0.00,0.00,-28.11,-20.45,45.522052.00,0.43,0.01,-10.18,-0.00,0.00,0.00,-28.11,-20.45,45.522104.00,0.43,0.03,-10.19,-0.00,0.00,0.00,-27.41,-21.16,45.862155.00,0.44,0.02,-10.21,0.00,0.00,0.00,-27.41,-21.16,45.862206.00,0.44,0.02,-10.20,0.00,0.00,0.00,-26.36,-21.86,43.822258.00,0.45,0.02,-10.18,-0.00,0.00,0.00,-26.36,-21.86,43.822309.00,0.45,0.05,-10.25,-0.00,0.00,0.00,-26.36,-21.86,43.822361.00,0.45,0.04,-10.23,-0.00,0.00,0.00,-26.53,-20.63,46.032412.00,1.26,-0.43,-10.81,0.03,-0.01,0.04,-26.53,-20.63,46.032463.00,0.71,-0.22,-10.47,-0.10,0.05,1.67,-27.24,-21.68,45.012515.00,0.52,-0.52,-10.37,-0.14,-0.03,2.54,-27.24,-21.68,45.012566.00,0.90,-0.34,-9.78,-0.10,0.19,3.05,-27.24,-21.68,45.012618.00,0.18,-0.28,-9.22,-0.09,0.04,2.97,-23.37,-24.86,46.712669.00,1.17,0.99,-10.90,0.07,0.14,1.36,-23.37,-24.86,46.712721.00,1.05,-0.28,-10.04,-0.11,0.02,2.53,-19.33,-23.98,45.522772.00,0.88,1.91,-9.57,0.10,0.03,1.31,-19.33,-23.98,45.522823.00,0.22,1.29,-10.47,0.04,0.04,-0.28,-19.33,-23.98,45.522875.00,-0.50,-2.90,-8.73,0.00,-0.20,-0.04,-16.69,-24.86,43.312926.00,0.66,0.54,-10.83,-0.02,0.38,0.59,-16.69,-24.86,43.312978.00,-0.01,0.67,-10.13,-0.13,0.41,0.43,-15.99,-24.51,45.693029.00,0.62,-0.47,-13.06,-0.39,-0.15,0.05,-15.99,-24.51,45.693081.00,0.41,0.25,-11.87,0.23,-1.43,0.29,-18.45,-22.74,42.633132.00,-1.54,1.04,-9.80,-0.46,-1.48,-0.32,-18.45,-22.74,42.633184.00,-0.87,-0.20,-8.12,-0.11,-1.40,-0.08,-18.45,-22.74,42.633235.00,-2.33,0.10,-6.27,0.09,-0.56,-0.83,-27.59,-27.33,43.993287.00,-1.42,-1.06,-7.84,0.59,0.80,-0.31,-27.59,-27.33,43.993338.00,-1.42,0.57,-9.83,-0.11,0.99,0.14,-25.65,-25.39,45.863390.00,-0.33,0.06,-11.04,0.23,1.23,-0.19,-25.65,-25.39,45.863441.00,-0.46,-0.72,-10.77,0.76,1.03,-0.02,-25.65,-25.39,45.863493.00,0.73,-0.22,-10.97,0.74,1.00,0.19,-20.56,-22.04,46.033544.00,0.94,-1.56,-10.42,1.15,0.91,0.10,-20.56,-22.04,46.033596.00,1.65,-1.87,-10.50,-0.50,0.27,0.33,-14.23,-18.16,46.033647.00,0.74,-0.55,-10.37,-0.43,-0.10,0.35,-14.23,-18.16,46.033699.00,1.42,-1.27,-9.68,-0.44,-0.09,0.37,-14.23,-18.16,46.033750.00,0.91,0.10,-10.70,-0.87,-0.11,0.50,-13.88,-19.57,43.993802.00,0.84,-0.62,-9.84,-0.12,-0.07,0.16,-13.88,-19.57,43.993853.00,-0.22,-0.29,-7.54,0.12,0.01,0.23,-14.76,-22.92,44.163905.00,1.17,-0.32,-10.63,-0.26,-0.06,0.11,-14.76,-22.92,44.163956.00,0.39,1.34,-11.45,-0.10,-0.33,-0.51,-15.81,-22.92,45.524008.00,0.90,-2.11,-9.26,0.07,-0.03,-0.52,-15.81,-22.92,45.524059.00,0.95,-1.09,-9.90,0.08,0.06,-0.15,-15.81,-22.92,45.524111.00,0.60,-2.32,-10.07,0.04,-0.05,0.01,-16.52,-23.98,45.864162.00,0.25,-0.93,-9.88,0.08,0.21,0.16,-16.52,-23.98,45.864214.00,1.59,-1.82,-9.86,0.32,0.73,-0.26,-13.18,-22.39,46.034265.00,1.25,-1.45,-8.25,-0.37,0.33,0.21,-13.18,-22.39,46.034317.00,-2.77,10.38,-8.40,-1.35,-1.01,0.44,-13.18,-22.39,46.034369.00,1.09,-0.84,-9.90,0.57,0.34,-0.08,-14.41,-22.57,45.864420.00,1.08,-0.41,-10.32,0.64,0.28,0.03,-14.41,-22.57,45.864472.00,1.53,-1.23,-9.88,0.55,0.35,-0.17,-12.30,-19.75,45.524523.00,1.26,-1.17,-10.17,0.49,0.47,0.04,-12.30,-19.75,45.524575.00,1.92,-1.53,-11.36,0.49,0.11,0.45,-10.54,-15.16,46.204626.00,1.67,-0.64,-13.08,1.35,-0.33,-0.07,-10.54,-15.16,46.204678.00,1.12,-3.32,-14.62,1.73,-1.51,-0.24,-10.54,-15.16,46.204729.00,1.70,-4.64,-16.51,1.90,-3.24,0.22,-16.17,-7.76,46.204781.00,0.31,-6.21,-14.82,0.31,-4.35,0.53,-16.17,-7.76,46.204832.00,-2.71,-5.61,-13.34,-1.12,-4.35,1.07,-16.17,-7.76,46.204884.00,-3.78,-6.23,-10.35,-0.29,-4.35,1.14,-41.82,-9.87,42.124936.00,-5.56,-3.73,-7.45,-0.64,-3.85,1.86,-41.82,-9.87,42.124987.00,-6.31,-0.94,-0.53,-0.26,-3.94,1.92,-59.74,-20.10,24.465039.00,-2.90,1.03,5.33,-0.98,-2.97,1.28,-59.74,-20.10,24.465090.00,-1.34,3.50,8.19,-0.62,-1.14,0.79,-59.74,-20.10,24.465142.00,1.74,2.59,13.81,-0.19,1.49,-0.65,-62.38,-30.50,11.045193.00,4.41,5.46,11.88,-0.68,3.19,-0.81,-62.38,-30.50,11.045245.00,10.08,1.19,2.77,0.42,4.37,-3.25,-60.97,-26.97,21.575296.00,10.32,-6.94,-18.02,0.31,4.37,-3.10,-60.97,-26.97,21.575348.00,6.78,-18.23,-39.23,0.15,4.37,-2.37,-29.87,-7.76,46.545400.00,-4.34,-15.94,-37.94,1.10,-0.39,0.35,-29.87,-7.76,46.545451.00,0.20,-11.82,-30.18,2.17,-4.14,1.53,-29.87,-7.76,46.545503.00,3.85,-3.40,-6.07,0.86,-4.35,3.35,-35.84,-1.41,43.485555.00,-2.10,4.50,2.63,-0.12,-4.35,2.31,-35.84,-1.41,43.485606.00,-1.90,2.97,3.91,0.06,-3.12,0.51,-61.67,-14.99,21.575658.00,-3.13,-1.04,4.80,-0.07,-1.34,-0.26,-61.67,-14.99,21.575709.00,-4.85,-1.61,2.84,-1.30,-0.26,0.12,-61.67,-14.99,21.575761.00,-7.88,0.19,-0.23,-1.79,0.32,-0.06,-63.43,-16.04,15.465813.00,-7.10,-1.04,-0.88,-1.61,0.55,-1.11,-63.43,-16.04,15.465864.00,-7.44,-4.10,-1.38,-0.82,0.29,-1.82,-62.90,-15.16,17.325916.00,-8.18,-5.57,-4.70,-0.85,0.49,-1.11,-62.90,-15.16,17.325968.00,-9.16,-4.43,-4.93,-0.58,0.20,-0.87,-61.15,-5.99,19.366019.00,-8.74,-6.02,-5.74,0.66,0.08,-1.71,-61.15,-5.99,19.366071.00,-8.79,-7.97,-6.22,1.08,-0.12,-1.76,-61.15,-5.99,19.366122.00,-6.34,-8.44,-4.88,0.58,-0.97,-0.48,-61.85,1.41,15.636174.00,-6.98,-5.43,-4.39,0.14,-1.63,-0.20,-61.85,1.41,15.636226.00,-4.47,-4.92,-1.94,1.50,-2.52,-0.86,-61.32,7.93,5.946278.00,-3.29,-7.59,0.77,3.07,-2.89,-1.51,-61.32,7.93,5.946329.00,-3.85,-8.99,6.67,4.13,-1.94,-0.19,-61.32,7.93,5.946381.00,-4.50,-4.22,2.08,1.80,-1.08,-0.11,-56.05,8.29,-14.106433.00,-4.22,-6.23,5.21,4.35,-1.77,-0.82,-56.05,8.29,-14.106484.00,-2.84,-5.39,8.74,2.79,-1.65,0.38,-50.96,-0.71,-27.866536.00,-4.30,-4.57,11.04,-0.61,-1.50,0.55,-50.96,-0.71,-27.866588.00,-5.07,-3.45,8.69,-3.17,0.02,0.19,-50.96,-0.71,-27.866639.00,-4.02,-5.54,6.22,-2.95,1.08,-0.37,-46.21,1.59,-31.766691.00,-4.46,-7.06,5.20,-3.59,1.03,-0.11,-46.21,1.59,-31.766743.00,-6.56,-5.88,1.82,-4.38,1.03,1.24,-51.31,13.40,-20.726795.00,-6.90,-6.86,-1.16,-4.38,0.50,0.83,-51.31,13.40,-20.726846.00,-6.84,-5.97,-4.10,-4.38,0.69,1.69,-55.35,13.93,9.686898.00,-6.45,-4.64,-6.40,-0.77,0.34,0.77,-55.35,13.93,9.686950.00,-6.06,-5.83,-4.36,0.26,0.04,0.53,-55.35,13.93,9.687001.00,-7.26,-3.49,-5.40,-1.53,-0.09,0.37,-57.81,9.70,14.787053.00,-7.41,-2.79,-8.86,-0.24,-0.45,-0.44,-57.81,9.70,14.787105.00,-6.15,-5.25,-2.75,4.35,-1.88,-1.59,-57.63,11.99,8.497156.00,-6.08,-12.48,5.06,3.02,-0.42,-0.36,-57.63,11.99,8.497208.00,-6.27,-9.04,-1.20,-2.54,0.76,1.06,-57.63,11.99,8.497260.00,-5.94,-5.37,-3.03,-2.96,0.25,1.53,-56.40,12.52,0.517312.00,-6.55,-4.29,-5.23,-2.11,-0.22,1.04,-56.40,12.52,0.517363.00,-8.07,-4.39,-4.45,-0.24,-0.45,0.70,-59.04,6.35,8.837415.00,-8.38,-5.14,-2.33,0.21,-0.47,0.35,-59.04,6.35,8.837467.00,-7.80,-5.03,-3.45,-0.05,-0.27,0.07,-59.04,6.35,8.837519.00,-7.86,-4.75,-3.63,-0.05,0.02,0.20,-60.62,3.35,3.917570.00,-7.94,-4.99,-3.50,0.05,-0.11,0.21,-60.62,3.35,3.917622.00,-7.76,-4.52,-3.95,0.46,-0.30,0.29,-61.85,2.12,4.427674.00,-11.88,-3.97,-1.68,0.65,-0.46,0.44,-61.85,2.12,4.427726.00,-8.59,-4.81,-1.47,-0.32,0.10,0.17,-61.85,1.76,3.067778.00,-8.11,-3.83,-2.64,-0.74,-0.20,0.03,-61.85,1.76,3.067830.00,-5.63,-5.16,-4.55,-0.49,-0.21,-0.29,-61.85,1.76,3.067881.00,-7.94,-4.36,-3.46,-0.17,-0.40,-0.41,-62.38,2.29,2.217933.00,-7.93,-4.81,-3.50,-0.04,-0.48,-0.57,-62.38,2.29,2.217985.00,-8.37,-4.80,-2.77,0.01,-0.07,-0.50,-60.27,3.35,0.518037.00,-8.39,-5.16,-3.47,0.08,0.10,-0.27,-60.27,3.35,0.518089.00,-7.89,-5.02,-3.57,-0.08,0.24,0.30,-60.27,3.35,0.518140.00,-8.61,-4.92,-1.73,0.06,0.04,0.38,-60.44,4.58,3.068192.00,-8.31,-3.45,-4.23,-0.53,0.32,0.62,-60.44,4.58,3.068244.00,-8.31,-4.43,-2.96,-0.31,0.25,0.57,-61.85,1.76,2.728296.00,-8.58,-5.75,-1.71,-0.18,-0.08,0.17,-61.85,1.76,2.728347.00,-8.84,-3.50,-3.50,-0.13,0.33,0.50,-64.31,-0.71,5.108399.00,-8.31,-4.05,-3.59,-0.20,0.21,0.50,-64.31,-0.71,5.108451.00,-8.68,-1.90,-5.40,-0.22,0.21,0.58,-64.31,-0.71,5.108503.00,-8.10,-1.88,-5.66,-0.03,0.61,0.69,-63.96,-4.94,5.778554.00,-8.58,-3.40,-3.62,0.25,0.07,0.02,-63.96,-4.94,5.778606.00,-8.38,-3.29,-3.75,-0.19,0.06,-0.33,-63.61,-4.58,7.478658.00,-8.81,-3.37,-3.63,-0.41,-0.10,-0.25,-63.61,-4.58,7.478710.00,-8.58,-2.80,-4.05,-0.60,-0.20,-0.33,-63.61,-4.58,7.478762.00,-8.49,-2.66,-4.68,-0.53,-0.16,-0.19,-64.49,-2.64,6.288813.00,-8.62,-3.27,-4.14,-0.44,-0.37,-0.32,-64.49,-2.64,6.288865.00,-8.52,-3.29,-3.54,-0.36,-0.21,-0.32,-63.26,0.00,5.108917.00,-8.64,-3.43,-3.66,-0.28,-0.34,-0.38,-63.26,0.00,5.108969.00,-8.34,-3.95,-3.72,-0.19,-0.39,-0.39,-63.26,0.00,5.109021.00,-8.54,-4.26,-3.19,0.03,-0.35,-0.49,-61.67,3.35,4.599073.00,-7.81,-4.53,-3.75,0.12,-0.26,-0.44,-61.67,3.35,4.599125.00,-8.04,-4.77,-3.48,0.33,-0.05,-0.42,-61.32,4.05,3.239176.00,-8.13,-5.57,-2.30,0.39,0.24,-0.05,-61.32,4.05,3.239228.00,-8.64,-4.16,-2.79,0.33,0.31,0.32,-61.85,5.64,3.409280.00,-8.35,-3.86,-3.49,-0.06,0.18,0.53,-61.85,5.64,3.409332.00,-8.16,-3.56,-2.87,-0.21,0.13,0.51,-61.85,5.64,3.409384.00,-9.04,-3.10,-3.59,-0.29,0.28,0.51,-63.61,2.12,4.429436.00,-8.32,-3.17,-4.57,-0.22,0.21,0.47,-63.61,2.12,4.429487.00,-8.77,-3.98,-3.59,-0.05,-0.01,0.34,-63.43,-2.29,6.629539.00,-8.21,-3.01,-4.44,0.05,0.12,0.50,-63.43,-2.29,6.629591.00,-7.92,-2.90,-4.49,0.06,0.24,0.49,-63.43,-2.29,6.629643.00,-9.37,-1.76,-4.35,0.01,0.12,0.26,-63.61,-4.58,7.819695.00,-8.53,-1.63,-4.53,-0.07,0.24,-0.02,-63.61,-4.58,7.819746.00,-8.76,-2.99,-3.90,-0.10,-0.03,-0.22,-64.13,-5.47,7.989798.00,-8.73,-2.27,-4.36,-0.29,-0.05,-0.29,-64.13,-5.47,7.989850.00,-9.07,-1.23,-4.81,-0.65,-0.10,-0.17,-64.13,-5.47,7.989902.00,-8.42,-3.11,-4.60,-0.50,-0.17,-0.31,-65.19,-3.70,6.629954.00,-8.83,-3.38,-5.14,-0.45,-0.32,-0.35,-65.19,-3.70,6.6210006.00,-8.41,-3.13,-3.86,-0.20,-0.33,-0.43,-65.19,-0.53,7.9810058.00,-8.73,-2.67,-4.76,-0.19,-0.38,-0.34,-65.19,-0.53,7.9810109.00,-8.64,-2.15,-5.09,-0.20,-0.19,-0.36,-63.08,0.53,5.9410161.00,-8.47,-3.54,-3.87,-0.09,-0.18,-0.39,-63.08,0.53,5.9410213.00,-8.57,-2.96,-4.82,-0.12,-0.13,-0.37,-63.08,0.53,5.9410265.00,-8.41,-3.37,-4.14,0.20,-0.02,-0.40,-62.38,2.29,4.5910317.00,-8.15,-3.92,-4.18,0.17,0.07,-0.27,-62.38,2.29,4.5910369.00,-8.10,-5.38,-2.52,0.36,0.10,-0.08,-62.03,4.41,5.6110421.00,-8.49,-3.76,-3.52,0.22,0.20,0.30,-62.03,4.41,5.6110473.00,-8.54,-3.64,-3.51,-0.02,0.14,0.46,-62.03,4.41,5.6110524.00,-8.57,-3.57,-3.19,-0.36,0.12,0.55,-62.38,2.29,5.2710576.00,-8.79,-2.95,-3.59,-0.30,0.11,0.50,-62.38,2.29,5.2710628.00,-8.27,-3.31,-3.71,-0.16,0.18,0.41,-64.66,-1.06,6.7910680.00,-8.63,-1.99,-5.07,-0.15,0.07,0.44,-64.66,-1.06,6.7910732.00,-7.80,-3.04,-4.82,-0.03,-0.00,0.46,-63.78,-3.00,7.9810784.00,-8.73,-1.43,-5.16,0.09,0.07,0.43,-63.78,-3.00,7.9810836.00,-8.09,-2.45,-4.63,0.18,0.08,0.46,-63.78,-3.00,7.9810888.00,-8.04,-1.46,-5.64,0.26,0.24,0.62,-65.54,-6.17,9.3410940.00,-8.81,-0.59,-5.01,0.22,0.13,0.41,-65.54,-6.17,9.3410992.00,-8.61,-2.82,-4.31,0.30,0.06,-0.35,-65.36,-9.17,8.4911044.00,-8.30,-1.75,-4.43,0.00,-0.11,-0.48,-65.36,-9.17,8.4911095.00,-9.13,-1.25,-4.07,-0.29,-0.00,-0.08,-65.36,-9.17,8.4911147.00,-8.86,-2.23,-3.50,-0.40,-0.21,-0.42,-66.07,-5.99,7.8111199.00,-8.72,-2.01,-4.33,-0.52,-0.08,-0.32,-66.07,-5.99,7.8111251.00,-8.13,-3.19,-3.38,-0.43,-0.15,-0.25,-64.49,-4.05,7.9811303.00,-8.20,-2.76,-4.20,-0.36,-0.32,-0.44,-64.49,-4.05,7.9811355.00,-9.01,-1.67,-4.64,-0.27,-0.04,-0.16,-64.49,-4.05,7.9811407.00,-8.35,-2.57,-5.11,-0.26,-0.15,-0.33,-65.01,-2.47,8.8311459.00,-9.56,-3.65,-1.90,-0.14,-0.42,-0.43,-65.01,-2.47,8.8311511.00,-8.17,-2.65,-3.98,-0.16,-0.17,-0.37,-64.31,1.76,7.4711563.00,-8.68,-2.10,-5.04,-0.07,0.04,-0.30,-64.31,1.76,7.4711615.00,-8.38,-3.11,-4.87,0.20,-0.15,-0.36,-63.26,1.76,6.7911667.00,-9.17,-3.53,-4.19,0.25,0.02,-0.18,-63.26,1.76,6.7911719.00,-8.80,-3.44,-3.78,0.28,0.16,0.06,-63.26,1.76,6.7911771.00,-9.35,-1.32,-4.52,0.16,0.17,0.31,-63.26,1.76,6.7911823.00,-8.54,-2.23,-4.76,0.04,0.38,0.63,-63.26,1.76,6.7911875.00,-8.74,-4.26,-3.18,0.18,0.17,0.50,-63.43,-0.18,8.3211927.00,-8.36,-4.60,-2.50,0.15,-0.06,0.24,-63.43,-0.18,8.3211979.00,-8.17,-3.93,-3.09,-0.12,0.18,0.36,-63.43,-0.18,8.3212031.00,-8.64,-1.00,-5.04,-0.27,0.17,0.48,-64.31,-2.82,7.8112083.00,-8.99,-2.36,-3.66,-0.12,0.13,0.31,-64.31,-2.82,7.8112135.00,-8.49,-1.75,-5.36,-0.14,0.08,0.39,-63.61,-4.58,9.1712187.00,-8.37,-1.31,-5.70,0.01,0.11,0.49,-63.61,-4.58,9.1712239.00,-8.48,-1.99,-4.89,0.13,0.07,0.56,-63.61,-4.58,9.1712291.00,-9.68,-0.32,-5.16,0.30,0.19,0.54,-65.54,-7.58,10.0212343.00,-8.27,0.83,-6.01,-0.01,0.40,0.64,-65.54,-7.58,10.0212395.00,-9.50,-0.77,-5.36,0.09,0.08,0.06,-66.95,-11.11,11.3812447.00,-8.64,-0.61,-4.81,-0.16,0.01,-0.12,-66.95,-11.11,11.3812499.00,-8.63,-2.38,-3.77,-0.27,-0.03,-0.31,-65.89,-9.34,10.7012551.00,-8.42,-0.15,-5.53,-0.27,-0.01,-0.34,-65.89,-9.34,10.7012603.00,-8.24,-1.89,-4.96,-0.33,-0.14,-0.37,-66.59,-6.17,11.3812655.00,-8.79,-1.82,-4.58,-0.45,-0.25,-0.60,-66.59,-6.17,11.3812708.00,-8.32,-1.52,-5.29,-0.35,-0.11,-0.42,-66.59,-6.17,11.3812760.00,-8.97,-1.36,-4.68,-0.37,-0.28,-0.42,-64.31,-4.58,9.1712812.00,-8.44,-2.72,-4.16,-0.14,-0.31,-0.59,-64.31,-4.58,9.1712864.00,-7.77,-1.41,-6.32,-0.15,-0.19,-0.45,-63.78,-1.23,7.9812916.00,-8.04,-3.19,-4.64,-0.11,-0.32,-0.56,-63.78,-1.23,7.9812968.00,-7.84,-2.15,-5.47,-0.09,-0.20,-0.51,-63.78,-1.23,7.9813020.00,-8.16,-2.77,-5.83,0.06,-0.15,-0.42,-63.26,2.12,7.4713072.00,-8.42,-2.86,-4.75,0.03,-0.06,-0.30,-63.26,2.12,7.4713124.00,-8.74,-3.62,-3.67,0.34,0.08,-0.07,-63.78,4.76,6.2813176.00,-8.59,-3.73,-3.91,0.31,0.19,0.11,-63.78,4.76,6.2813228.00,-8.00,-4.49,-4.12,0.25,0.25,0.38,-63.78,4.76,6.2813280.00,-8.64,-2.63,-4.27,0.06,0.34,0.80,-63.43,2.64,7.6413332.00,-8.91,-2.01,-4.12,-0.05,0.09,0.51,-63.43,2.64,7.6413384.00,-9.01,-1.93,-3.95,-0.27,0.05,0.32,-64.49,-1.23,8.3213436.00,-8.50,-2.11,-4.51,-0.19,0.13,0.25,-64.49,-1.23,8.3213489.00,-8.71,-2.14,-5.41,-0.24,0.00,0.27,-63.61,-3.53,9.5113541.00,-8.43,-1.94,-4.39,-0.08,-0.03,0.26,-63.61,-3.53,9.5113593.00,-8.49,-2.02,-4.81,0.04,-0.07,0.33,-63.61,-3.53,9.5113645.00,-7.86,-3.62,-4.04,0.16,0.09,0.50,-66.07,-2.47,8.1513697.00,-8.43,-2.29,-5.01,0.17,0.11,0.46,-66.07,-2.47,8.1513749.00,-8.24,-2.21,-4.65,0.22,0.27,0.56,-66.07,-5.64,9.8513801.00,-8.51,-1.34,-4.92,0.18,0.16,0.40,-66.07,-5.64,9.8513853.00,-8.58,-0.93,-5.16,0.20,0.12,-0.18,-66.07,-5.64,9.8513905.00,-9.16,-0.91,-4.33,-0.03,-0.05,-0.29,-66.42,-10.23,11.2113958.00,-9.14,-2.37,-2.03,-0.20,-0.15,-0.52,-66.42,-10.23,11.2114010.00,-9.34,-1.25,-4.88,-0.41,-0.18,-0.57,-66.24,-6.17,10.3614062.00,-10.35,-1.15,-6.47,-0.42,-0.35,-0.70,-66.24,-6.17,10.3614114.00,-8.93,-1.75,-4.44,-0.36,-0.31,-0.60,-66.24,-6.17,10.3614166.00,-9.29,-2.48,-4.78,-0.43,-0.39,-0.74,-66.24,-6.17,10.3614218.00,-9.14,-2.98,-3.26,-0.24,-0.30,-0.64,-66.24,-6.17,10.3614271.00,-8.15,-2.70,-4.67,-0.00,-0.23,-0.52,-63.96,2.12,7.8114323.00,-7.69,-1.50,-5.93,-0.20,-0.18,-0.48,-63.96,2.12,7.8114375.00,-8.40,-2.53,-5.05,-0.01,-0.10,-0.41,-63.43,5.82,7.3014427.00,-8.34,-3.69,-4.24,0.27,-0.02,-0.28,-63.43,5.82,7.3014479.00,-9.06,-2.13,-4.45,0.27,0.11,0.02,-63.43,5.82,7.3014531.00,-8.67,-2.95,-4.57,0.15,0.40,0.41,-63.26,7.05,6.1114584.00,-9.46,-1.32,-5.11,0.04,0.30,0.64,-63.26,7.05,6.1114636.00,-8.81,-2.21,-4.07,-0.19,0.28,0.81,-63.26,2.12,7.8114688.00,-8.66,-2.94,-3.65,-0.20,0.03,0.47,-63.26,2.12,7.8114740.00,-8.92,-2.06,-3.92,-0.34,0.04,0.39,-63.26,2.12,7.8114792.00,-8.65,-2.06,-5.00,-0.14,0.01,0.19,-65.72,0.71,8.8314844.00,-8.52,-2.26,-4.42,-0.13,-0.00,0.31,-65.72,0.71,8.8314896.00,-8.64,-1.78,-4.64,-0.12,0.01,0.40,-65.01,-1.76,8.8314949.00,-7.96,-1.63,-4.91,0.10,-0.06,0.27,-65.01,-1.76,8.8315001.00,-8.12,-4.45,-2.82,0.07,0.25,0.33,-65.89,-3.00,9.6815053.00,-7.15,-1.71,-6.05,-0.05,0.27,0.57,-65.89,-3.00,9.6815105.00,-7.79,-2.35,-5.19,0.13,0.33,0.39,-65.89,-3.00,9.6815158.00,-8.86,-0.34,-5.33,0.28,0.19,0.15,-67.82,-7.05,11.8915210.00,-9.05,-0.60,-5.28,-0.03,-0.01,-0.45,-67.82,-7.05,11.8915262.00,-8.81,-1.59,-3.99,-0.08,-0.19,-0.51,-66.42,-4.94,10.8715314.00,-8.46,-2.92,-3.33,-0.05,-0.30,-0.69,-66.42,-4.94,10.8715366.00,-8.37,-2.07,-5.15,-0.29,-0.28,-0.61,-65.72,-1.06,10.5315419.00,-7.76,-2.78,-5.87,-0.30,-0.31,-0.74,-65.72,-1.06,10.5315471.00,-8.52,-1.79,-5.79,-0.39,-0.27,-0.55,-65.72,-1.06,10.5315523.00,-8.66,-1.28,-5.43,-0.32,-0.11,-0.45,-63.78,1.59,8.6615575.00,-8.25,-2.95,-4.78,-0.12,-0.24,-0.53,-63.78,1.59,8.6615627.00,-8.86,-3.65,-2.26,0.09,-0.33,-0.50,-62.38,4.41,7.9815680.00,-8.16,-2.66,-4.05,-0.06,-0.21,-0.35,-62.38,4.41,7.9815732.00,-8.71,-1.35,-5.18,-0.16,-0.06,-0.29,-62.38,4.41,7.9815784.00,-7.47,-2.20,-5.33,0.03,-0.06,-0.33,-62.55,5.99,6.4515836.00,-8.84,-2.80,-4.80,0.29,0.13,-0.06,-62.55,5.99,6.4515888.00,-8.89,-2.39,-4.87,0.12,0.41,0.51,-62.03,6.52,6.2815941.00,-8.59,-2.82,-4.10,-0.01,0.29,0.59,-62.03,6.52,6.2815993.00,-9.29,-1.08,-4.21,-0.14,0.13,0.53,-63.26,3.17,9.1716045.00,-8.22,-2.65,-4.22,-0.10,-0.04,0.30,-63.26,3.17,9.1716097.00,-8.56,-2.38,-4.36,-0.33,0.01,0.32,-63.26,3.17,9.1716149.00,-8.81,-1.65,-4.80,-0.10,-0.01,0.20,-63.61,1.76,9.8516202.00,-8.83,-2.31,-5.07,-0.14,-0.07,0.14,-63.61,1.76,9.8516254.00,-8.84,-1.57,-4.47,-0.13,-0.05,0.18,-63.43,0.53,8.3216306.00,-8.87,0.04,-5.41,-0.08,0.02,0.36,-63.43,0.53,8.3216358.00,-7.57,-3.72,-4.41,0.18,-0.06,0.34,-63.43,0.53,8.3216411.00,-7.50,-1.27,-5.32,0.07,0.17,0.59,-65.54,-1.23,9.6816463.00,-8.55,-3.06,-4.57,0.28,0.19,-0.05,-65.54,-1.23,9.6816515.00,-9.32,-0.27,-5.80,0.12,0.26,0.15,-67.30,-3.35,10.7016567.00,-8.78,-0.99,-4.48,-0.05,-0.00,-0.17,-67.30,-3.35,10.7016619.00,-9.17,0.22,-5.15,-0.32,0.03,-0.32,-67.30,-3.35,10.7016672.00,-9.73,0.52,-4.27,-0.44,-0.01,-0.20,-64.31,-2.82,10.1916724.00,-8.36,-2.09,-4.17,-0.26,-0.19,-0.72,-64.31,-2.82,10.1916776.00,-9.12,-1.47,-4.13,-0.38,-0.18,-0.55,-65.36,0.71,9.5116828.00,-8.16,-1.28,-4.51,-0.24,-0.28,-0.60,-65.36,0.71,9.5116881.00,-8.59,-2.45,-3.53,-0.13,-0.26,-0.59,-63.78,4.41,8.6616933.00,-8.74,-2.45,-3.42,-0.19,-0.26,-0.56,-63.78,4.41,8.6616985.00,-7.32,-2.21,-4.99,-0.20,-0.16,-0.52,-63.78,4.41,8.6617037.00,-8.82,-4.94,-1.12,0.14,-0.35,-0.66,-61.85,7.40,6.7917090.00,-8.59,-1.88,-5.30,0.07,-0.08,-0.34,-61.85,7.40,6.7917142.00,-7.95,-3.24,-4.47,0.36,-0.19,-0.50,-59.74,11.99,5.4417194.00,-8.53,-3.53,-3.89,0.19,0.09,-0.03,-59.74,11.99,5.4417247.00,-8.95,-2.75,-4.03,0.18,0.08,0.03,-61.50,11.64,7.1317299.00,-8.15,-5.95,-1.99,0.20,0.17,0.08,-61.50,11.64,7.1317351.00,-8.04,-5.61,-2.96,0.19,0.15,0.26,-61.50,11.64,7.1317403.00,-8.83,-1.98,-4.51,-0.27,0.24,0.59,-60.62,8.29,7.6417456.00,-8.04,-1.56,-5.35,-0.40,0.08,0.68,-60.62,8.29,7.6417509.00,-9.00,-0.84,-4.72,-0.38,0.01,0.54,-61.32,6.88,8.3217564.00,-8.54,-1.48,-4.71,-0.33,0.05,0.37,-61.32,6.88,8.3217615.00,-8.65,-1.34,-4.75,-0.27,0.02,0.56,-61.32,6.88,8.3217665.00,-8.20,-3.28,-3.95,-0.18,-0.12,0.31,-63.08,5.47,8.3217716.00,-8.84,-2.33,-3.55,-0.12,0.03,0.40,-63.08,5.47,8.3217767.00,-8.67,-1.76,-4.12,-0.09,0.04,0.34,-63.61,1.41,6.7917818.00,-7.82,-1.69,-5.92,0.06,0.10,0.34,-63.61,1.41,6.7917868.00,-8.93,-0.48,-4.79,0.11,0.17,0.58,-64.66,0.35,8.8317919.00,-9.27,-1.34,-5.25,0.08,0.16,0.29,-64.66,0.35,8.8317970.00,-8.60,-1.65,-4.53,0.16,0.04,0.00,-64.66,0.35,8.8318020.00,-8.65,-1.34,-4.35,0.12,0.11,-0.10,-65.19,-0.53,8.6618071.00,-8.74,-1.34,-3.72,-0.07,0.00,-0.13,-65.19,-0.53,8.6618122.00,-9.12,-1.01,-4.72,-0.16,-0.01,-0.31,-65.19,-0.53,8.6618173.00,-9.13,-1.45,-4.38,-0.12,-0.10,-0.31,-64.49,0.88,10.3618224.00,-8.93,-0.82,-5.43,-0.27,-0.04,-0.32,-64.49,0.88,10.3618274.00,-8.78,-2.35,-4.55,-0.11,-0.09,-0.38,-62.55,3.53,9.8518325.00,-8.60,-2.58,-4.49,-0.05,-0.11,-0.40,-62.55,3.53,9.8518376.00,-9.15,-2.57,-2.86,-0.05,-0.15,-0.28,-62.38,5.82,9.6818427.00,-8.84,-1.42,-5.01,-0.13,0.11,0.13,-62.38,5.82,9.6818477.00,-8.39,-3.07,-3.05,0.47,-0.57,-0.82,-62.38,5.82,9.6818528.00,-11.54,-1.86,-3.43,0.63,0.22,-1.15,-62.20,7.05,7.8118579.00,-7.95,-3.41,-4.50,0.14,0.25,-2.19,-62.20,7.05,7.8118630.00,-6.53,-3.85,-5.56,0.94,-0.29,-1.71,-55.52,16.22,5.7718681.00,-6.86,-5.19,-4.22,1.46,-1.16,-2.13,-55.52,16.22,5.7718732.00,-5.67,-6.12,-4.33,2.29,-0.96,-1.78,-55.52,16.22,5.7718783.00,-5.61,-7.36,-3.17,3.40,-1.57,-1.75,-47.62,26.97,-6.2818833.00,-4.01,-6.88,0.59,4.35,-2.38,-0.75,-47.62,26.97,-6.2818884.00,-4.58,-6.12,6.66,4.35,-1.80,0.01,-47.62,26.97,-6.2818935.00,-6.70,-4.62,7.10,4.35,1.00,-0.73,-38.30,13.05,-31.2518986.00,-5.03,-4.95,9.18,2.65,1.62,-0.78,-38.30,13.05,-31.2519037.00,-5.60,-6.60,7.12,-1.81,4.21,-1.24,-44.81,-3.70,-33.1219088.00,-5.24,-7.13,-0.67,-4.38,3.69,0.35,-44.81,-3.70,-33.1219139.00,-5.95,-6.94,-0.74,-3.88,3.48,2.15,-59.39,5.64,-9.8519190.00,-5.36,-2.16,-7.94,-3.96,3.60,4.40,-59.39,5.64,-9.8519241.00,-6.98,5.42,-11.09,-0.25,1.17,4.40,-59.39,5.64,-9.8519291.00,-10.16,1.90,-4.84,4.35,-1.28,1.55,-66.24,-16.40,8.3219342.00,-9.87,0.09,0.46,4.35,-1.40,1.53,-66.24,-16.40,8.3219393.00,-9.34,-2.28,-2.56,0.98,1.30,1.83,-65.89,-25.56,10.3619444.00,-8.27,-0.37,-0.73,-1.78,2.05,2.66,-65.89,-25.56,10.3619495.00,-6.50,6.55,-4.79,1.90,1.53,3.16,-65.89,-25.56,10.3619546.00,-8.64,5.63,-2.43,4.35,2.73,1.94,-56.58,-40.90,19.3619597.00,-6.59,4.38,-12.59,1.21,1.97,-0.69,-56.58,-40.90,19.3619648.00,-6.26,-0.08,-6.63,1.90,0.10,-1.56,-50.96,-32.79,33.9719699.00,-5.20,-1.11,-3.82,4.23,1.67,-1.11,-50.96,-32.79,33.9719750.00,-4.28,-6.78,-11.11,2.94,2.38,-0.77,-43.93,-12.69,41.1019801.00,-4.37,-3.99,-11.10,2.36,0.47,1.37,-43.93,-12.69,41.1019852.00,-5.17,-3.51,-7.01,4.35,-0.45,0.41,-43.93,-12.69,41.1019902.00,-5.89,-5.03,-3.95,4.35,-0.35,0.50,-42.70,5.11,37.8819953.00,-5.76,-5.26,-1.19,3.31,0.84,-0.41,-42.70,5.11,37.8820004.00,-4.89,-7.15,-2.86,0.66,1.08,-0.88,-42.70,5.11,37.8820055.00,-5.08,-8.76,-3.04,-0.90,1.06,-0.21,-37.25,19.75,29.8920106.00,-3.94,-7.93,-4.08,-1.64,1.05,-0.16,-37.25,19.75,29.8920157.00,-5.02,-4.78,-5.69,0.98,0.82,-0.90,-32.51,15.69,36.5220208.00,-2.58,-8.37,-5.70,0.14,0.09,-1.23,-32.51,15.69,36.5220259.00,-4.50,-9.01,-8.95,0.10,0.65,-0.12,-28.64,17.10,35.8420310.00,-3.00,-6.54,-3.42,-3.97,1.08,0.46,-28.64,17.10,35.8420361.00,-2.78,-5.73,-7.27,-4.11,1.46,0.80,-28.64,17.10,35.8420412.00,-2.62,-3.37,-10.47,-0.93,-0.08,0.32,-27.76,4.58,44.5020463.00,-2.93,-4.81,-1.24,0.77,-0.31,0.24,-27.76,4.58,44.5020514.00,-2.09,-7.29,-11.08,-2.57,2.01,0.97,-21.79,-0.35,45.5220565.00,-1.20,-0.50,-9.32,-1.90,1.07,2.42,-21.79,-0.35,45.5220616.00,-0.84,-0.84,-9.58,-1.78,2.66,-0.57,-21.79,-0.35,45.5220667.00,0.73,0.07,-12.69,-0.75,2.64,-0.50,-13.35,-7.40,45.5220718.00,1.40,-1.82,-13.67,-0.42,-1.37,-0.30,-13.35,-7.40,45.5220769.00,-0.59,-5.37,-7.70,0.29,-1.94,-0.17,-14.41,-10.23,46.2020820.00,-3.02,-0.22,-11.35,-2.13,0.06,0.56,-14.41,-10.23,46.2020871.00,0.10,1.66,-15.50,1.17,-0.09,-1.54,-14.41,-10.23,46.2020921.00,-1.25,-5.82,-6.88,-0.53,-2.17,-1.19,-17.57,-16.22,47.2220973.00,-3.54,1.36,-12.13,-1.20,-0.03,-1.25,-17.57,-16.22,47.2221024.00,-1.17,-3.63,-5.65,0.79,-0.17,-0.74,-23.72,-23.45,45.6921075.00,-4.74,4.85,-14.73,0.27,1.00,-2.46,-23.72,-23.45,45.6921126.00,-0.92,4.77,-5.95,-3.08,-0.10,-4.32,-23.72,-23.45,45.6921177.00,2.56,-5.94,-10.90,-0.27,2.31,-1.29,-24.07,-25.92,45.0121228.00,-2.34,8.40,-12.76,0.82,0.83,-0.62,-24.07,-25.92,45.0121279.00,0.99,-4.24,-6.86,-0.24,0.89,-1.02,-19.68,-22.92,45.5221329.00,-0.88,1.25,-15.06,-0.92,1.15,-0.37,-19.68,-22.92,45.5221381.00,0.15,0.60,-10.09,0.34,-0.44,-0.41,-19.68,-22.92,45.5221432.00,0.62,0.79,-8.84,-0.01,-0.26,-0.23,-18.98,-23.27,45.5221483.00,0.75,-0.44,-10.36,-1.31,0.73,-0.40,-18.98,-23.27,45.5221533.00,1.71,1.44,-9.60,-0.04,0.06,-0.65,-18.27,-28.56,43.4821585.00,2.49,0.87,-10.96,0.44,-0.30,-0.56,-18.27,-28.56,43.4821636.00,0.72,2.01,-11.06,0.13,-1.59,0.71,-21.79,-27.85,44.5021687.00,-1.07,-2.29,-7.48,0.69,-0.99,0.49,-21.79,-27.85,44.5021738.00,-0.77,2.46,-10.67,-1.71,-0.11,0.66,-21.79,-27.85,44.5021789.00,-1.12,1.19,-9.05,-1.29,0.50,-0.06,-23.55,-30.68,41.4421840.00,0.53,0.28,-9.75,2.62,1.71,0.44,-23.55,-30.68,41.4421891.00,2.74,1.34,-10.99,0.83,0.99,1.48,-23.55,-30.68,41.4421942.00,1.97,-0.99,-8.55,1.70,-0.31,2.55,-14.58,-25.21,46.0321993.00,0.58,-0.29,-10.68,0.88,-1.11,1.45,-14.58,-25.21,46.0322044.00,0.27,-1.88,-9.62,1.39,-1.42,0.17,-14.41,-18.69,45.1822095.00,-0.93,-1.78,-10.02,0.50,-1.44,-0.33,-14.41,-18.69,45.1822146.00,-0.74,-2.06,-10.13,0.82,-0.49,-0.57,-22.67,-13.93,46.3722197.00,-1.75,0.02,-11.34,-0.36,-0.95,-0.55,-22.67,-13.93,46.3722248.00,-0.80,-3.80,-8.31,0.75,-0.85,-0.78,-22.67,-13.93,46.3722299.00,-1.08,-1.73,-9.56,-0.24,1.01,-0.21,-27.24,-12.16,45.6922350.00,0.74,-2.47,-9.19,-0.24,1.05,0.77,-27.24,-12.16,45.6922402.00,-1.53,-2.55,-9.49,-0.90,-0.17,1.24,-20.21,-13.22,46.0322453.00,-0.61,-3.46,-8.34,-2.53,-0.12,0.75,-20.21,-13.22,46.0322504.00,-1.54,1.77,-10.35,-4.38,0.47,0.41,-20.21,-13.22,46.0322555.00,-0.37,2.91,-10.56,1.08,1.59,-0.79,-22.14,-29.27,42.4622606.00,1.09,0.45,-9.69,2.18,1.33,-1.00,-22.14,-29.27,42.4622657.00,-0.27,-0.39,-11.96,2.34,-0.04,-0.30,-16.87,-23.27,44.5022708.00,0.56,-0.73,-9.47,-0.29,-0.83,-0.43,-16.87,-23.27,44.5022759.00,-1.88,1.86,-10.82,-0.23,-0.93,0.15,-16.87,-23.27,44.5022810.00,0.95,0.00,-10.86,0.78,0.26,-0.09,-20.56,-23.09,45.0122862.00,0.72,-2.91,-7.84,2.47,0.08,-0.56,-20.56,-23.09,45.0122913.00,-1.14,-2.84,-8.72,-0.34,-1.86,-2.07,-22.67,-17.45,45.6922964.00,-0.67,0.26,-11.23,-0.68,-0.40,-1.68,-22.67,-17.45,45.6923015.00,-0.89,-3.88,-8.39,2.35,0.15,-0.43,-26.53,-12.87,46.3723066.00,-1.29,-2.58,-8.47,-3.20,-0.65,-0.66,-26.53,-12.87,46.3723117.00,-2.15,4.39,-10.71,-4.38,-0.50,0.89,-26.53,-12.87,46.3723169.00,-1.62,3.24,-9.19,-0.77,1.05,-1.04,-28.46,-37.02,40.4223220.00,0.08,1.13,-9.22,3.59,0.79,-1.19,-28.46,-37.02,40.4223271.00,0.53,-0.96,-8.77,1.23,-0.11,0.32,-28.46,-37.02,40.4223322.00,0.28,0.51,-8.41,0.85,0.74,-1.73,-28.11,-25.39,44.1623373.00,-0.52,0.39,-10.90,-1.20,0.06,0.87,-28.11,-25.39,44.1623424.00,-1.02,2.63,-11.17,0.41,0.53,0.74,-26.71,-25.03,45.1823475.00,-0.37,-1.98,-8.86,3.22,-0.93,-0.78,-26.71,-25.03,45.1823527.00,0.49,-3.27,-8.71,1.25,-0.47,-0.08,-29.52,-15.16,44.1623578.00,0.21,-0.85,-10.04,-0.46,0.81,-0.66,-29.52,-15.16,44.1623629.00,0.11,-1.20,-9.91,-1.78,1.23,0.05,-29.52,-15.16,44.1623680.00,0.54,3.36,-12.42,-0.39,0.59,0.71,-23.90,-22.21,44.1623731.00,0.71,-0.48,-10.40,1.13,0.15,0.24,-23.90,-22.21,44.1623783.00,0.44,-1.50,-10.08,0.01,-0.04,-0.37,-21.44,-19.75,46.8823834.00,0.38,-2.45,-8.42,1.49,-1.41,0.65,-21.44,-19.75,46.8823885.00,-0.27,-0.96,-10.19,0.61,-0.54,0.62,-21.44,-19.75,46.8823936.00,0.20,-2.24,-10.40,0.87,-0.67,0.21,-24.78,-16.75,45.3523988.00,-0.39,-3.34,-9.43,0.89,-0.80,0.11,-24.78,-16.75,45.3524039.00,-0.80,-2.13,-9.77,0.08,0.08,-0.31,-28.64,-13.93,46.0324090.00,0.06,-4.46,-8.27,-0.90,0.37,-0.35,-28.64,-13.93,46.0324142.00,-1.40,4.82,-12.59,-2.89,0.12,1.45,-28.64,-13.93,46.0324193.00,-0.17,-0.99,-10.50,1.46,0.17,-0.76,-27.76,-26.09,46.2024244.00,-0.51,0.19,-10.40,1.06,-0.69,-0.89,-27.76,-26.09,46.2024295.00,-0.20,-1.29,-8.56,-1.27,0.45,-0.19,-28.99,-21.33,45.6924347.00,0.33,0.94,-9.86,-1.80,1.74,0.30,-28.99,-21.33,45.6924398.00,2.10,-0.32,-10.03,0.84,-0.24,0.43,-23.19,-23.98,43.8224449.00,-1.69,2.29,-12.48,0.20,-1.07,0.65,-23.19,-23.98,43.8224500.00,-0.04,0.50,-9.42,-0.29,-0.10,0.18,-23.19,-23.98,43.8224552.00,0.06,0.29,-10.39,-0.15,-0.01,-0.64,-24.95,-23.98,46.2024603.00,0.38,-0.11,-10.22,-0.01,-0.00,0.15,-24.95,-23.98,46.2024654.00,0.15,0.16,-10.17,0.23,0.05,-0.10,-26.18,-21.68,44.6724705.00,0.04,-0.25,-9.73,0.06,-0.03,-0.29,-26.18,-21.68,44.6724757.00,0.23,0.07,-10.20,-0.00,-0.00,0.00,-26.18,-21.68,44.6724808.00,0.25,0.09,-10.18,0.00,0.00,0.00,-25.13,-23.09,46.0324859.00,0.26,0.07,-10.20,-0.00,-0.00,0.00,-25.13,-23.09,46.0324910.00,0.24,0.08,-10.23,-0.00,0.00,0.00,-25.13,-24.15,46.0324962.00,0.25,0.08,-10.20,-0.00,0.00,0.00,-25.13,-24.15,46.0325013.00,0.27,0.08,-10.45,-0.01,-0.01,-0.00,-25.13,-24.15,46.0325064.00,0.56,0.70,-9.65,0.08,-0.06,-0.97,-25.13,-22.74,44.6725116.00,0.43,-0.25,-10.11,-0.09,-0.00,-0.43,-25.13,-22.74,44.6725167.00,0.48,-0.18,-10.26,-0.20,-0.03,-0.14,-27.06,-22.92,45.5225218.00,-0.32,1.30,-10.22,-0.07,-0.01,0.91,-27.06,-22.92,45.5225269.00,0.11,0.44,-10.08,-0.02,0.02,-0.39,-27.06,-22.92,45.5225321.00,1.16,-1.45,-10.19,-0.01,-0.02,-2.52,-25.83,-23.09,45.6925372.00,0.66,-0.64,-10.16,0.02,0.01,-0.01,-25.83,-23.09,45.6925423.00,0.11,0.44,-10.20,0.05,-0.02,0.29,-27.06,-23.62,45.5225475.00,0.14,0.46,-10.23,-0.13,-0.02,0.00,-27.06,-23.62,45.5225526.00,0.30,0.01,-10.05,0.12,0.01,-0.01,-26.36,-24.68,46.2025577.00,0.29,0.16,-10.18,-0.02,-0.01,0.05,-26.36,-24.68,46.2025629.00,0.04,0.54,-10.21,-0.03,-0.02,0.40,-26.36,-24.68,46.2025680.00,0.19,0.36,-10.20,0.06,-0.01,0.10,-27.41,-22.57,44.8425731.00,-0.04,0.61,-10.17,0.03,-0.01,0.17,-27.41,-22.57,44.8425783.00,0.18,0.36,-10.27,0.01,0.01,0.01,-26.88,-23.09,45.0125834.00,0.19,0.28,-10.14,0.08,0.03,-0.00,-26.88,-23.09,45.0125885.00,0.43,0.08,-10.30,-0.07,0.04,0.10,-26.88,-23.09,45.0125936.00,0.19,0.37,-10.23,0.04,0.03,0.06,-26.53,-22.74,44.3325988.00,0.24,0.24,-10.18,0.03,0.02,-0.00,-26.53,-22.74,44.3326039.00,0.22,0.26,-10.22,0.03,0.00,-0.05,-26.01,-23.98,43.1426090.00,0.26,0.20,-10.19,0.06,0.01,-0.04,-26.01,-23.98,43.1426142.00,0.22,0.25,-10.19,-0.02,-0.00,-0.00,-26.01,-23.98,43.1426193.00,0.23,0.27,-10.22,0.01,-0.01,-0.00,-25.48,-23.45,43.9926245.00,0.24,0.16,-10.18,0.00,0.00,0.00,-25.48,-23.45,43.9926296.00,0.24,0.21,-10.21,0.01,0.02,0.02,-26.71,-22.57,42.4626347.00,0.21,0.31,-10.26,0.02,0.02,0.01,-26.71,-22.57,42.4626399.00,0.14,0.32,-10.34,0.07,-0.05,-0.16,-26.88,-23.09,43.6526450.00,0.35,-0.09,-10.03,0.28,0.13,-0.03,-26.88,-23.09,43.6526501.00,0.25,0.10,-10.07,-0.20,-0.02,0.41,-26.88,-23.09,43.6526553.00,0.11,0.51,-10.36,-0.20,-0.10,0.20,-26.18,-23.09,43.3126604.00,0.42,0.38,-10.10,0.18,-0.02,-0.40,-26.18,-23.09,43.3126656.00,0.32,-0.30,-10.08,0.01,-0.01,-0.23,-26.18,-23.09,43.3126707.00,0.68,-0.25,-10.02,-0.20,-0.07,0.10,-27.24,-23.45,43.3126758.00,0.15,0.16,-10.15,0.02,0.01,-0.15,-27.24,-23.45,43.3126810.00,0.16,0.32,-10.23,-0.02,0.02,-0.16,-26.53,-23.09,45.3526861.00,0.22,0.13,-10.19,0.11,0.01,-0.11,-26.53,-23.09,45.3526913.00,0.18,0.04,-10.12,0.03,0.03,0.01,-27.94,-22.74,44.6726964.00,0.20,0.27,-10.20,-0.03,0.01,0.02,-27.94,-22.74,44.6727016.00,0.19,0.30,-10.21,-0.03,0.01,0.01,-27.94,-22.74,44.6727067.00,0.20,0.30,-10.20,-0.02,0.01,0.04,-27.94,-23.80,45.6927118.00,0.20,0.32,-10.20,0.00,0.01,0.04,-27.94,-23.80,45.6927170.00,0.22,0.24,-10.19,0.04,0.01,0.05,-27.76,-22.92,45.1827221.00,0.26,0.07,-10.12,0.05,0.01,0.03,-27.76,-22.92,45.1827273.00,0.25,0.06,-10.26,0.05,0.00,0.04,-27.76,-22.92,45.1827324.00,0.24,0.12,-10.17,-0.02,0.00,0.04,-26.18,-22.74,45.6927375.00,0.19,0.35,-10.25,-0.09,-0.01,0.05,-26.18,-22.74,45.6927427.00,0.21,0.26,-10.22,0.04,0.01,0.00,-26.36,-22.92,45.8627478.00,0.21,0.17,-10.17,0.05,0.01,-0.00,-26.36,-22.92,45.8627530.00,0.24,0.18,-10.22,0.00,0.00,-0.05,-26.36,-22.92,45.8627581.00,0.00,-0.12,-10.04,0.08,-0.03,0.02,-27.59,-23.80,45.6927633.00,0.04,0.04,-9.64,0.18,-0.05,0.13,-27.59,-23.80,45.6927684.00,0.25,0.18,-10.26,0.00,0.00,0.00,-26.18,-24.51,46.3727735.00,0.21,0.14,-10.20,0.00,0.00,0.00,-26.18,-24.51,46.3727787.00,0.22,0.14,-10.21,0.00,0.00,0.00,-26.01,-22.92,46.5427839.00,0.23,0.14,-10.20,0.00,0.00,0.00,-26.01,-22.92,46.5427890.00,0.23,0.14,-10.18,0.00,0.00,0.00,-26.01,-22.92,46.5427941.00,0.24,0.12,-10.20,-0.00,0.00,0.00,-26.01,-22.92,46.5427993.00,0.23,0.13,-10.19,-0.00,0.00,0.00,-26.01,-22.92,46.5428044.00,0.23,0.11,-10.23,0.00,0.00,0.00,-27.94,-21.33,45.6928096.00,0.21,0.13,-10.20,0.00,0.00,0.00,-27.94,-21.33,45.6928147.00,0.23,0.13,-10.20,-0.00,0.00,0.00,-27.94,-21.33,45.6928199.00,0.22,0.12,-10.19,-0.00,0.00,0.00,-26.53,-22.74,45.6928250.00,0.23,0.13,-10.20,0.00,0.00,0.00,-26.53,-22.74,45.6928302.00,0.23,0.14,-10.21,-0.00,0.00,0.00,-27.76,-22.57,44.8428353.00,0.22,0.17,-10.18,-0.01,-0.01,-0.01,-27.76,-22.57,44.8428405.00,0.20,0.25,-10.19,-0.03,-0.01,-0.30,-27.76,-22.57,44.8428456.00,0.41,-0.38,-10.14,0.01,0.00,-0.48,-26.88,-22.04,46.0328508.00,0.22,0.15,-10.22,-0.03,-0.01,0.00,-26.88,-22.04,46.0328559.00,0.21,0.19,-10.20,-0.04,-0.01,0.00,-27.94,-23.09,46.7128611.00,0.18,0.25,-10.22,-0.02,-0.00,0.01,-27.94,-23.09,46.7128662.00,0.18,0.25,-10.25,-0.02,-0.00,0.04,-27.24,-23.80,46.0328714.00,0.16,0.30,-10.26,-0.02,0.01,0.03,-27.24,-23.80,46.0328765.00,0.20,0.14,-10.19,0.03,-0.01,-0.01,-27.24,-23.80,46.0328817.00,0.34,-0.01,-10.18,-0.03,-0.00,0.03,-27.41,-22.92,45.8628869.00,0.15,0.26,-10.28,-0.03,0.02,0.24,-27.41,-22.92,45.8628920.00,0.08,0.44,-10.37,0.17,0.05,0.07,-26.53,-22.74,45.3528972.00,0.33,-0.05,-10.03,0.20,0.06,-0.16,-26.53,-22.74,45.3529023.00,0.28,-0.01,-10.20,-0.07,0.03,0.05,-26.53,-22.74,45.3529075.00,0.33,-0.03,-10.15,0.08,0.04,0.09,-26.01,-23.27,43.1429126.00,0.27,0.03,-10.17,0.01,0.05,0.08,-26.01,-23.27,43.1429178.00,0.32,0.02,-10.25,-0.07,-0.04,-0.17,-26.71,-23.27,42.8029229.00,0.38,0.01,-10.27,-0.02,0.08,0.34,-26.71,-23.27,42.8029281.00,0.19,-0.10,-10.17,0.11,-0.06,-0.06,-25.30,-21.16,42.4629332.00,0.53,0.09,-10.06,-0.20,-0.14,-0.21,-25.30,-21.16,42.4629384.00,0.09,0.33,-10.28,0.17,0.05,0.00,-25.30,-21.16,42.4629435.00,0.54,-0.20,-9.78,0.20,-0.06,-0.25,-25.83,-22.74,44.3329487.00,0.39,-0.50,-10.09,-0.02,0.01,0.24,-25.83,-22.74,44.3329539.00,0.12,0.46,-10.00,-0.32,0.14,0.82,-26.18,-22.74,44.3329590.00,0.74,-1.25,-10.25,-0.29,-0.32,-0.84,-26.18,-23.09,44.6729642.00,0.17,0.51,-10.30,0.05,0.00,-0.06,-26.18,-23.09,44.6729693.00,0.17,0.20,-10.21,0.04,0.00,-0.11,-27.06,-23.62,45.8629745.00,0.18,0.21,-10.20,-0.02,0.00,-0.07,-27.06,-23.62,45.8629796.00,0.17,0.23,-10.21,-0.02,0.00,-0.04,-27.41,-22.92,46.2029848.00,0.17,0.24,-10.17,-0.04,0.00,0.01,-27.41,-22.92,46.2029900.00,0.17,0.29,-10.19,-0.01,0.00,0.01,-27.41,-22.92,46.2029951.00,0.16,0.27,-10.19,0.00,0.00,-0.00,-26.18,-25.21,46.0330003.00,0.18,0.31,-10.20,-0.00,0.00,-0.00,-26.18,-25.21,46.0330054.00,0.17,0.31,-10.23,-0.01,0.00,0.00,-27.41,-23.27,46.5430106.00,0.17,0.30,-10.19,0.04,0.00,0.00,-27.41,-23.27,46.5430158.00,0.17,0.24,-10.18,0.01,0.00,-0.02,-27.41,-23.27,46.5430209.00,0.18,0.31,-10.22,-0.01,0.00,0.02,-28.11,-22.57,46.2030261.00,0.17,0.28,-10.20,-0.03,0.00,0.02,-28.11,-22.57,46.2030313.00,0.16,0.29,-10.22,-0.04,-0.01,0.01,-27.59,-23.09,45.3530364.00,0.20,0.27,-10.14,-0.06,-0.00,0.02,-27.59,-23.09,45.3530416.00,0.15,0.44,-10.25,-0.06,-0.04,-0.03,-27.59,-23.09,45.3530467.00,0.22,0.28,-10.21,0.02,0.07,-0.01,-26.36,-22.57,45.5230519.00,0.18,0.41,-10.19,-0.00,0.08,0.15,-26.36,-22.57,45.5230570.00,0.25,0.27,-10.16,0.02,0.01,-0.00,-26.18,-22.04,43.3130622.00,0.23,0.33,-10.19,-0.02,0.01,-0.00,-26.18,-22.04,43.3130674.00,0.19,0.29,-10.22,-0.01,-0.02,0.01,-26.01,-22.92,44.5030725.00,0.23,0.26,-10.19,0.03,0.00,-0.02,-26.01,-22.92,44.5030777.00,0.17,0.40,-10.22,0.04,0.03,-0.03,-26.01,-22.92,44.5030829.00,0.33,-0.01,-10.02,0.23,0.01,-0.50,-25.48,-23.45,44.6730880.00,0.44,-0.18,-10.09,-0.10,0.01,0.25,-25.48,-23.45,44.6730932.00,0.09,0.43,-10.26,-0.23,-0.03,0.68,-28.29,-22.04,42.6330984.00,0.08,0.45,-10.35,0.01,-0.05,-0.08,-28.29,-22.04,42.6331035.00,0.48,0.53,-9.97,0.60,0.15,-0.65,-28.29,-22.04,42.6331087.00,0.36,-0.70,-9.97,-0.21,-0.15,-0.02,-27.06,-23.98,43.1431139.00,0.05,0.39,-10.04,-0.49,-0.09,0.57,-27.06,-23.98,43.1431190.00,0.19,0.27,-10.23,0.07,-0.02,-0.30,-27.59,-23.09,45.0131242.00,0.16,0.32,-10.18,0.02,0.00,-0.04,-27.59,-23.09,45.0131294.00,0.16,0.28,-10.19,-0.01,0.00,-0.03,-27.59,-23.09,45.0131346.00,0.17,0.35,-10.23,-0.01,0.00,-0.02,-26.36,-22.92,45.1831398.00,0.17,0.36,-10.21,-0.01,0.00,-0.02,-26.36,-22.92,45.1831449.00,0.16,0.35,-10.19,-0.01,0.00,-0.01,-28.82,-23.27,46.2031501.00,0.16,0.32,-10.21,0.02,0.00,-0.00,-28.82,-23.27,46.2031553.00,0.17,0.36,-10.22,-0.02,-0.00,-0.00,-27.94,-23.80,45.0131604.00,0.16,0.37,-10.21,0.01,0.00,0.00,-27.94,-23.80,45.0131656.00,0.16,0.36,-10.19,-0.01,0.00,0.00,-27.94,-23.80,45.0131708.00,0.16,0.35,-10.20,-0.00,0.00,0.00,-28.11,-24.33,44.8431760.00,0.16,0.35,-10.19,0.01,-0.00,0.00,-28.11,-24.33,44.8431811.00,0.16,0.35,-10.20,0.01,0.00,0.01,-27.59,-23.80,45.0131863.00,0.19,0.24,-10.16,0.03,-0.00,0.01,-27.59,-23.80,45.0131915.00,0.14,0.39,-10.23,-0.01,-0.01,0.04,-27.59,-23.80,45.0131966.00,0.17,0.28,-10.17,-0.01,0.00,0.01,-27.06,-24.33,44.8432018.00,0.16,0.32,-10.20,0.00,0.00,-0.00,-27.06,-24.33,44.8432070.00,0.20,0.26,-10.15,-0.01,-0.00,0.02,-27.76,-22.92,44.8432122.00,0.13,0.40,-10.22,0.05,-0.01,0.01,-27.76,-22.92,44.8432173.00,0.11,0.40,-10.25,0.14,-0.01,-0.10,-26.18,-24.15,43.9932225.00,0.10,0.36,-10.34,-0.00,-0.04,-0.01,-26.18,-24.15,43.9932277.00,0.09,0.30,-10.27,0.03,-0.05,-0.08,-26.18,-24.15,43.9932329.00,0.14,0.22,-10.28,-0.02,-0.03,-0.03,-28.46,-21.86,47.9032380.00,0.12,0.15,-10.27,-0.01,-0.03,0.05,-28.46,-21.86,47.9032432.00,-0.37,0.09,-10.24,0.15,0.10,0.05,-28.11,-20.80,47.2232484.00,0.38,0.17,-10.09,-0.15,0.17,0.18,-28.11,-20.80,47.2232536.00,0.25,1.03,-10.15,-0.17,-0.14,0.03,-28.11,-20.80,47.2232587.00,0.07,-0.25,-10.20,-0.15,-0.06,0.03,-27.94,-22.74,46.03