time,ax,ay,az,gx,gy,gz,mx,my,mz51.00,0.19,0.19,-10.21,-0.00,0.00,0.00,-30.05,-20.27,46.71103.00,0.18,0.19,-10.18,-0.00,-0.00,0.00,-30.05,-20.27,46.71339.00,0.30,0.43,-10.38,-0.02,-0.00,0.47,-29.69,-20.27,47.05391.00,0.02,0.30,-10.21,-0.01,0.00,0.49,-31.10,-19.92,46.03444.00,0.14,0.29,-10.19,-0.00,0.00,0.14,-31.10,-19.92,46.03496.00,0.24,0.03,-10.19,0.00,0.00,0.15,-31.10,-19.92,46.03548.00,0.19,0.17,-10.18,-0.00,-0.00,0.02,-30.40,-21.33,46.71601.00,1.79,-0.87,-10.32,0.01,-0.01,0.04,-30.40,-21.33,46.71653.00,0.33,0.07,-10.15,-0.02,-0.00,1.89,-28.64,-21.68,45.69706.00,-0.13,0.64,-10.16,-0.10,-0.05,2.28,-28.64,-21.68,45.69758.00,-0.53,1.26,-10.23,0.04,0.04,0.58,-27.24,-22.74,45.69811.00,0.73,-0.63,-10.19,0.01,-0.00,-0.59,-27.24,-22.74,45.69863.00,-0.01,0.54,-10.28,-0.07,-0.05,0.12,-27.24,-22.74,45.69915.00,0.14,-0.06,-10.06,-0.01,-0.03,-0.18,-29.34,-21.68,46.71968.00,0.24,0.16,-10.25,0.01,0.01,0.01,-29.34,-21.68,46.711020.00,0.20,0.11,-10.20,0.00,0.00,-0.00,-28.64,-24.86,47.391072.00,0.18,0.13,-10.17,-0.00,0.00,0.00,-28.64,-24.86,47.391125.00,0.20,0.13,-10.19,0.00,0.00,0.00,-28.64,-24.86,47.391177.00,0.18,0.14,-10.23,-0.00,-0.00,0.00,-26.71,-22.57,46.201230.00,0.18,0.12,-10.21,-0.00,-0.00,0.00,-26.71,-22.57,46.201282.00,0.18,0.14,-10.18,-0.00,-0.00,0.00,-27.59,-22.39,46.031508.00,0.18,0.06,-10.20,-0.00,0.00,0.00,-27.94,-22.04,46.031560.00,0.21,0.18,-10.16,-0.00,-0.00,0.00,-27.94,-22.04,46.031613.00,0.23,0.18,-10.20,-0.00,0.00,-0.00,-27.94,-22.04,46.031665.00,0.18,0.10,-10.23,-0.00,-0.00,0.00,-27.76,-21.86,45.521718.00,0.12,0.15,-9.98,-0.00,0.00,-0.00,-27.76,-21.86,45.521770.00,0.16,0.23,-10.11,-0.00,-0.00,0.00,-27.76,-22.57,45.521823.00,0.19,0.11,-10.27,-0.00,0.00,-0.00,-27.76,-22.57,45.521875.00,0.17,0.12,-10.12,-0.00,-0.00,0.00,-29.69,-22.74,45.351928.00,0.21,0.15,-10.19,0.00,0.00,-0.00,-29.69,-22.74,45.351980.00,0.18,0.13,-10.21,-0.00,-0.00,0.00,-29.69,-22.74,45.352033.00,0.18,0.16,-10.19,-0.00,0.00,0.00,-27.76,-23.62,45.862085.00,0.19,0.13,-10.17,-0.00,-0.00,0.00,-27.76,-23.62,45.862138.00,0.18,0.16,-10.22,0.00,0.00,0.00,-27.76,-22.57,44.162190.00,0.20,0.14,-10.19,-0.00,0.00,0.00,-27.76,-22.57,44.162243.00,0.17,0.15,-10.19,-0.00,0.00,0.00,-27.76,-22.57,44.162295.00,0.19,0.14,-10.20,-0.00,0.00,0.00,-27.76,-24.68,45.862348.00,0.19,0.15,-10.21,-0.00,0.00,0.00,-27.76,-24.68,45.862400.00,0.20,0.13,-10.22,-0.00,0.00,0.00,-27.76,-24.68,45.862453.00,0.19,0.15,-10.22,-0.00,-0.00,0.00,-27.76,-24.68,45.862700.00,0.19,0.15,-10.20,-0.00,0.00,0.00,-27.06,-22.92,45.862753.00,1.32,-2.27,-9.63,0.01,-0.03,0.34,-27.59,-22.04,45.012805.00,0.25,-0.09,-9.91,-0.04,-0.02,1.88,-27.59,-22.04,45.012858.00,-0.01,0.73,-10.35,-0.02,-0.00,2.21,-27.59,-22.04,45.012910.00,0.45,-0.31,-10.05,-0.03,-0.02,2.42,-23.72,-23.80,45.352963.00,0.18,0.40,-10.19,-0.02,-0.02,2.01,-23.72,-23.80,45.353016.00,-0.39,1.33,-10.82,-0.02,0.15,1.69,-21.61,-24.15,45.013068.00,0.51,0.10,-10.37,0.00,0.27,1.00,-21.61,-24.15,45.013121.00,0.86,-1.06,-9.06,0.45,0.09,1.09,-21.61,-24.15,45.013173.00,-0.70,-0.49,-10.44,-0.17,0.06,2.26,-18.98,-23.27,44.503226.00,0.71,1.64,-10.25,-0.06,0.24,1.42,-18.98,-23.27,44.503279.00,0.41,-0.02,-9.93,0.49,0.30,0.35,-13.88,-23.80,45.013331.00,0.48,1.48,-11.30,-0.81,0.31,0.22,-13.88,-23.80,45.013384.00,1.38,0.81,-11.05,0.74,0.39,0.36,-13.88,-23.80,45.013437.00,3.35,-1.35,-8.51,0.45,0.29,0.13,-10.89,-21.51,44.503489.00,1.15,0.14,-9.77,-0.94,0.33,-0.07,-10.89,-21.51,44.503542.00,1.68,0.48,-10.46,-0.48,0.15,0.01,-11.07,-22.39,43.993594.00,1.68,-0.17,-9.82,1.06,0.32,-0.16,-11.07,-22.39,43.993647.00,1.53,-1.71,-9.07,0.61,0.12,0.15,-8.61,-20.98,43.313876.00,0.17,8.17,-10.19,-4.38,-2.63,-1.88,-10.72,-22.04,44.673929.00,3.14,10.94,-13.20,-2.54,-2.08,-2.93,-22.14,-43.02,35.673981.00,-4.72,2.63,-9.16,4.35,0.03,-2.84,-22.14,-43.02,35.674034.00,-2.41,0.85,-14.71,1.15,-3.90,-2.13,-38.48,-29.44,41.614087.00,-3.98,0.12,-15.55,1.50,-4.21,-1.65,-38.48,-29.44,41.614140.00,-5.10,-6.80,-6.41,4.35,-4.35,0.04,-57.28,-19.04,28.874192.00,-4.35,-1.70,-0.96,1.07,-4.35,0.93,-57.28,-19.04,28.874245.00,-3.63,-1.11,3.47,1.08,-3.96,0.67,-57.28,-19.04,28.874298.00,-1.30,-1.09,12.56,0.22,-2.11,0.70,-63.78,-21.68,7.304351.00,0.35,6.15,18.82,-1.29,2.08,0.88,-63.78,-21.68,7.304404.00,6.71,2.18,11.95,-0.37,4.37,-1.34,-62.73,-25.56,9.344457.00,15.89,1.54,4.66,-0.94,4.37,-1.47,-62.73,-25.56,9.344509.00,14.25,-3.34,-31.41,-0.40,4.37,-1.71,-62.73,-25.56,9.344562.00,5.31,-17.73,-39.23,0.23,3.95,-1.27,-34.61,-16.04,45.354615.00,1.49,-2.23,-37.66,1.62,-4.35,2.32,-34.61,-16.04,45.354668.00,4.97,-2.16,-13.05,2.41,-4.35,1.28,-36.02,-12.87,44.334721.00,2.81,2.06,0.99,0.31,-4.35,1.95,-36.02,-12.87,44.334773.00,-0.08,3.73,7.78,0.18,-4.35,0.04,-62.20,-17.98,20.044826.00,-0.91,0.02,8.25,-0.20,-3.48,-0.74,-62.20,-17.98,20.044879.00,-3.64,-0.44,6.40,-0.83,-0.92,-0.65,-62.20,-17.98,20.045108.00,-3.10,-7.73,1.15,1.88,-2.50,-2.29,-61.67,-3.35,1.875161.00,-5.06,-7.87,4.18,0.89,-1.64,-0.48,-55.00,9.34,-10.705214.00,-5.71,-12.76,5.18,2.85,-0.33,-0.48,-55.00,9.34,-10.705267.00,-7.23,-7.95,1.76,1.37,-0.44,0.49,-55.00,9.34,-10.705320.00,-5.17,-8.50,7.25,2.77,-0.97,0.49,-50.60,7.40,-17.665373.00,-8.32,-0.30,-0.22,0.75,-1.40,1.35,-50.60,7.40,-17.665426.00,-7.70,-5.34,21.98,2.82,0.38,-0.17,-47.62,-3.70,-26.335479.00,-4.31,-4.08,1.23,-2.88,2.33,-0.30,-47.62,-3.70,-26.335532.00,-6.49,-6.66,2.93,-1.51,1.50,0.40,-52.54,2.64,-16.825585.00,-6.78,-5.10,-0.78,-0.18,0.64,0.57,-52.54,2.64,-16.825638.00,-4.26,-6.27,0.12,1.59,-0.85,0.36,-54.82,1.76,-15.635691.00,-11.20,-5.14,10.02,0.44,0.25,-0.43,-54.82,1.76,-15.635744.00,-5.36,-6.33,-0.85,-1.85,1.46,-0.40,-54.82,1.76,-15.635797.00,-6.30,-6.03,3.81,-0.04,0.67,0.44,-57.11,-0.18,-13.085849.00,-7.08,-4.03,3.82,-0.36,0.63,0.69,-57.11,-0.18,-13.085903.00,-8.29,-5.58,2.92,-0.48,0.48,0.05,-58.16,-1.23,-10.365955.00,-8.02,-5.60,2.41,-0.66,0.44,0.21,-58.16,-1.23,-10.366008.00,-7.39,-5.39,2.63,-0.17,0.17,0.12,-58.16,-1.23,-10.366061.00,-7.73,-5.80,2.52,-0.08,0.12,0.35,-58.86,-0.53,-7.646284.00,-7.77,-6.08,1.39,-0.12,-0.49,0.14,-60.44,-3.53,-6.796337.00,-7.18,-5.75,1.72,0.20,-0.65,0.07,-60.44,-3.53,-6.796390.00,-8.13,-5.25,3.12,0.09,-0.52,-0.03,-60.44,-3.53,-6.796443.00,-8.13,-4.83,1.21,-0.02,0.22,-0.08,-59.39,-5.29,-10.876497.00,-8.30,-5.21,3.81,-0.48,0.54,0.11,-59.39,-5.29,-10.876550.00,-7.47,-4.76,1.22,-0.79,0.82,0.14,-59.39,-4.58,-7.476603.00,-7.89,-4.52,3.83,-0.42,0.51,0.12,-59.39,-4.58,-7.476656.00,-7.61,-4.69,3.69,-0.25,0.83,0.04,-60.62,-4.05,-3.916709.00,-8.06,-4.89,5.16,0.22,0.30,-0.04,-60.62,-4.05,-3.916762.00,-7.91,-4.14,1.12,0.16,-0.25,-0.03,-60.62,-4.05,-3.916815.00,-8.50,-5.06,1.73,-0.02,-0.28,-0.08,-62.03,-3.35,-2.216868.00,-7.51,-4.87,0.22,-0.66,-0.33,-0.00,-62.03,-3.35,-2.216921.00,-7.99,-4.92,1.17,-0.66,-0.50,0.11,-60.44,-2.47,-4.426974.00,-8.39,-5.06,0.94,-0.52,-0.41,0.09,-60.44,-2.47,-4.427028.00,-8.35,-5.54,0.17,-0.40,-0.37,0.05,-58.86,-3.35,-5.947081.00,-8.14,-4.89,2.04,-0.02,-0.47,0.16,-58.86,-3.35,-5.947134.00,-6.72,-5.15,1.31,0.06,-0.36,-0.02,-58.86,-3.35,-5.947187.00,-8.26,-5.83,3.28,0.39,-0.38,-0.08,-59.21,-3.35,-8.327240.00,-8.41,-5.23,3.81,0.44,0.14,-0.33,-59.21,-3.35,-8.327467.00,-8.26,-5.77,1.36,-0.44,0.43,-0.02,-60.09,-2.12,-7.137521.00,-8.48,-5.00,0.94,-0.22,0.24,0.18,-59.74,-3.53,-2.387574.00,-7.60,-5.08,-1.07,-0.07,0.78,-0.04,-59.74,-3.53,-2.387627.00,-7.31,-5.59,-0.57,0.13,0.48,-0.07,-59.74,-3.53,-2.387680.00,-8.66,-5.19,0.68,0.24,-0.25,-0.17,-59.57,-1.59,0.177733.00,-7.67,-4.89,-0.78,-0.34,-0.31,-0.08,-59.57,-1.59,0.177786.00,-8.42,-4.51,0.73,-0.58,-0.51,0.03,-60.09,-1.41,-2.727839.00,-7.79,-5.45,0.60,-0.29,-0.58,0.07,-60.09,-1.41,-2.727892.00,-7.76,-5.07,0.34,-0.29,-0.47,0.16,-60.09,-1.41,-2.727946.00,-6.33,-5.46,-0.29,0.13,-0.47,0.07,-60.09,-1.76,-4.767999.00,-7.83,-5.99,1.06,0.20,-0.59,0.09,-60.09,-1.76,-4.768052.00,-8.06,-5.66,1.03,0.07,-0.38,-0.06,-59.74,-2.12,-6.798105.00,-7.75,-5.73,1.78,0.37,-0.26,-0.13,-59.74,-2.12,-6.798158.00,-8.38,-5.01,1.72,0.13,0.41,-0.18,-58.51,-1.94,-7.308212.00,-9.11,-4.93,3.51,0.12,0.37,0.01,-58.51,-1.94,-7.308265.00,-8.46,-4.83,-0.14,-0.39,0.64,0.17,-58.51,-1.94,-7.308318.00,-8.43,-4.09,2.07,-0.31,0.46,0.21,-59.74,-0.71,-4.768371.00,-8.50,-5.52,-0.12,-0.48,0.93,-0.13,-59.74,-0.71,-4.768424.00,-7.73,-5.47,0.56,-0.01,0.71,0.02,-60.62,-3.70,-2.558652.00,-8.07,-5.30,-0.51,-0.78,-0.28,-0.10,-61.50,-2.12,-0.348706.00,-8.00,-5.68,-0.58,-0.55,-0.46,-0.00,-59.74,-1.06,-1.368759.00,-7.16,-5.22,-0.11,-0.14,-0.52,0.05,-59.74,-1.06,-1.368813.00,-8.28,-5.94,0.72,-0.07,-0.50,0.02,-59.21,-2.29,-3.918866.00,-7.93,-5.91,-0.50,-0.28,-0.17,-0.10,-59.21,-2.29,-3.918919.00,-7.82,-5.27,0.40,0.07,-0.36,-0.03,-59.21,0.53,-6.628972.00,-7.50,-5.57,0.45,0.20,-0.25,-0.07,-59.21,0.53,-6.629026.00,-7.90,-5.70,1.26,0.25,-0.29,-0.08,-58.16,-1.59,-6.289079.00,-8.28,-5.11,1.22,0.47,-0.03,-0.06,-58.16,-1.59,-6.289132.00,-7.90,-5.23,1.88,0.26,0.28,-0.10,-58.16,-1.59,-6.289186.00,-8.27,-4.94,1.38,-0.27,0.42,0.07,-60.44,-1.41,-8.499239.00,-8.23,-5.11,1.50,-0.40,0.52,0.27,-60.44,-1.41,-8.499292.00,-7.89,-3.63,-3.01,-0.48,0.63,0.20,-60.97,-1.59,-4.939346.00,-8.32,-5.09,-0.20,-0.05,0.85,0.08,-60.97,-1.59,-4.939399.00,-7.88,-5.27,-2.40,0.00,0.70,-0.01,-61.67,-0.88,-1.199453.00,-7.24,-5.35,-1.92,-0.04,0.86,-0.01,-61.67,-0.88,-1.199506.00,-7.51,-5.15,-0.70,0.28,0.33,-0.08,-61.67,-0.88,-1.199559.00,-8.78,-5.21,0.75,0.21,-0.44,-0.16,-61.50,-2.12,2.049613.00,-9.57,-4.61,2.43,-0.24,-0.48,0.03,-61.50,-2.12,2.049666.00,-8.88,-5.56,-0.73,-0.47,-0.54,0.11,-60.97,-0.53,-0.859892.00,-7.65,-5.82,0.14,0.01,-0.56,-0.04,-59.74,-2.12,-1.709945.00,-8.75,-5.87,0.61,0.16,-0.57,-0.04,-58.51,-1.94,-2.899998.00,-8.23,-5.81,1.35,0.19,-0.24,-0.10,-58.51,-1.94,-2.8910052.00,-7.75,-5.60,1.85,0.37,-0.11,-0.16,-58.34,-1.76,-6.7910105.00,-8.83,-5.81,1.41,0.06,0.53,-0.16,-58.34,-1.76,-6.7910159.00,-8.58,-5.10,0.66,-0.42,0.55,0.16,-60.09,0.00,-5.1010212.00,-8.54,-4.76,0.88,-0.48,0.42,0.22,-60.09,0.00,-5.1010265.00,-8.07,-4.41,-0.82,-0.39,0.27,0.05,-60.09,0.00,-5.1010319.00,-8.63,-4.91,-0.30,-0.32,0.30,0.06,-60.80,-0.71,-3.7410372.00,-7.91,-6.53,1.51,-0.09,0.29,0.12,-60.80,-0.71,-3.7410425.00,-7.94,-5.04,-0.61,0.02,0.66,0.19,-61.50,-1.41,-1.3610479.00,-7.78,-5.61,-1.27,0.02,0.56,-0.04,-61.50,-1.41,-1.3610532.00,-7.95,-5.27,-2.47,0.21,0.21,-0.02,-61.50,-1.41,-1.3610586.00,-8.23,-5.57,-1.18,0.21,-0.03,-0.25,-61.85,-2.47,1.7010639.00,-8.50,-4.64,-1.68,-0.43,-0.25,-0.09,-61.85,-2.47,1.7010692.00,-8.75,-4.96,-0.35,-0.48,-0.58,-0.06,-61.15,-1.41,0.6810746.00,-9.44,-5.44,2.16,-0.24,-0.58,0.01,-61.15,-1.41,0.6810799.00,-7.85,-4.94,-0.92,-0.34,-0.58,0.08,-60.27,-0.18,-1.1910853.00,-8.43,-5.10,-0.11,-0.14,-0.61,0.00,-60.27,-0.18,-1.1911078.00,-7.38,-5.56,1.23,0.54,-0.17,-0.09,-59.57,0.53,-6.9611132.00,-9.01,-5.90,2.05,0.33,0.35,-0.08,-59.57,0.53,-6.9611185.00,-8.62,-4.93,4.27,0.11,0.14,0.08,-59.04,1.76,-7.4711239.00,-8.30,-5.44,-0.49,-0.48,0.77,0.02,-59.04,1.76,-7.4711292.00,-7.95,-5.19,0.58,-0.43,0.35,0.16,-60.09,0.71,-4.4211346.00,-8.09,-5.32,-1.11,-0.25,0.32,0.19,-60.09,0.71,-4.4211399.00,-8.32,-5.14,0.53,-0.06,0.51,0.17,-60.09,0.71,-4.4211453.00,-7.61,-5.23,-0.51,0.01,0.79,0.19,-60.44,0.35,-3.4011507.00,-8.11,-5.57,-0.22,0.47,0.69,0.16,-60.44,0.35,-3.4011560.00,-8.49,-6.23,-0.06,0.40,0.47,-0.08,-62.38,-1.59,-0.1711614.00,-8.33,-4.87,-1.25,0.08,-0.01,-0.20,-62.38,-1.59,-0.1711667.00,-8.32,-4.46,-2.96,-0.38,-0.23,-0.31,-62.38,-1.59,1.5311721.00,-8.11,-4.86,-0.94,-0.28,-0.62,-0.09,-62.38,-1.59,1.5311774.00,-7.91,-5.04,-1.28,-0.36,-0.70,-0.03,-62.38,-1.59,1.5311828.00,-7.11,-5.39,-3.07,-0.27,-0.64,0.08,-60.80,1.41,-0.6811881.00,-8.81,-4.38,0.82,-0.13,-0.81,0.15,-60.80,1.41,-0.6811935.00,-8.16,-4.96,1.13,-0.36,-0.51,-0.10,-59.39,1.41,-5.4411989.00,-7.96,-5.36,0.02,-0.04,-0.72,0.06,-59.39,1.41,-5.4412042.00,-8.13,-5.86,2.18,0.27,-0.54,-0.12,-57.98,3.17,-9.1712269.00,-7.38,-4.89,-0.79,-0.52,0.48,0.16,-59.39,1.76,-8.8312322.00,-8.41,-4.95,-0.72,-0.49,0.39,0.04,-59.74,0.35,-7.4712376.00,-8.42,-5.32,-0.03,-0.32,0.18,0.12,-59.74,0.35,-7.4712430.00,-8.25,-4.37,-1.97,-0.27,0.29,0.22,-60.62,1.23,-3.2312483.00,-8.09,-5.67,-0.49,0.27,0.38,0.21,-60.62,1.23,-3.2312537.00,-7.80,-4.74,1.08,0.44,0.60,0.29,-60.62,1.23,-3.2312591.00,-7.97,-5.59,-1.80,0.32,0.62,-0.08,-60.97,0.53,-1.8712644.00,-8.46,-4.70,-0.52,0.13,-0.21,-0.29,-60.97,0.53,-1.8712698.00,-8.55,-5.40,0.45,-0.22,-0.54,-0.15,-62.20,0.00,-1.0212752.00,-6.75,-4.69,-1.50,-0.16,-0.76,-0.04,-62.20,0.00,-1.0212805.00,-7.71,-5.63,-1.61,-0.19,-0.81,-0.07,-60.27,-0.18,-3.9112859.00,-7.45,-4.80,-0.38,-0.18,-0.92,0.08,-60.27,-0.18,-3.9112913.00,-8.29,-5.67,0.50,0.12,-0.75,0.03,-60.27,-0.18,-3.9112966.00,-7.89,-5.41,-0.44,0.07,-0.63,-0.06,-60.80,-1.76,-8.4913020.00,-8.03,-5.33,0.19,0.38,-0.04,-0.16,-60.80,-1.76,-8.4913074.00,-8.58,-4.50,1.40,0.30,0.05,-0.01,-58.34,0.35,-12.2313127.00,-8.52,-4.93,0.25,-0.05,0.67,-0.05,-58.34,0.35,-12.2313181.00,-8.22,-5.04,0.53,-0.68,0.73,0.16,-60.62,1.59,-9.3413235.00,-9.11,-5.66,2.43,-0.30,0.16,0.29,-60.62,1.59,-9.3413409.00,-7.58,-5.13,-0.94,0.24,0.57,0.05,-60.80,-1.06,-7.4713463.00,-8.05,-4.66,-0.05,-0.01,-0.02,-0.13,-63.08,-0.18,-4.9313517.00,-8.79,-4.81,-0.72,-0.24,-0.13,-0.28,-63.08,-0.18,-4.9313570.00,-8.64,-4.98,0.16,-0.39,-0.52,-0.19,-61.67,-0.18,-4.5913624.00,-8.32,-5.23,1.25,-0.26,-0.62,-0.08,-61.67,-0.18,-4.5913678.00,-8.80,-5.85,-0.72,-0.32,-0.45,-0.06,-60.27,1.59,-6.6213732.00,-8.53,-5.14,0.96,-0.04,-0.70,0.05,-60.27,1.59,-6.6213785.00,-8.20,-4.58,0.83,-0.02,-0.57,0.07,-60.27,1.59,-6.6213839.00,-7.57,-5.19,-0.01,0.14,-0.72,0.03,-58.69,2.82,-8.4913893.00,-7.83,-5.39,0.71,0.08,-0.60,-0.02,-58.69,2.82,-8.4913947.00,-7.87,-5.74,0.63,0.12,-0.27,-0.22,-57.81,2.29,-14.1014000.00,-8.73,-5.14,2.41,0.33,0.22,-0.07,-57.81,2.29,-14.1014054.00,-8.61,-4.58,2.56,0.27,0.21,-0.03,-57.28,2.47,-12.9114108.00,-7.93,-4.96,0.19,-0.47,0.64,0.08,-57.28,2.47,-12.9114162.00,-8.06,-5.27,0.28,-0.45,0.09,0.19,-60.27,2.29,-11.0414215.00,-8.24,-4.98,0.22,-0.31,-0.05,0.34,-60.27,2.29,-11.0414269.00,-8.47,-4.79,1.25,-0.27,0.18,0.19,-60.27,2.29,-11.0414323.00,-8.36,-5.28,-0.74,-0.20,0.45,0.15,-60.80,0.71,-9.8514377.00,-8.10,-3.92,-2.63,-0.27,0.63,0.24,-60.80,0.71,-9.8514598.00,-8.96,-5.06,-1.38,-0.36,-0.51,-0.08,-60.97,1.94,-7.3014652.00,-8.78,-5.02,0.59,-0.39,-0.69,-0.00,-60.97,1.94,-7.3014706.00,-8.31,-4.94,1.49,-0.39,-0.68,0.07,-58.69,3.88,-8.8314760.00,-7.74,-5.34,0.08,-0.05,-0.76,0.06,-58.69,3.88,-8.8314814.00,-6.97,-5.41,1.37,0.10,-0.61,0.03,-58.16,3.70,-13.7614868.00,-7.39,-5.05,0.48,0.29,-0.53,-0.08,-58.16,3.70,-13.7614921.00,-8.28,-5.20,2.07,0.52,-0.14,-0.21,-56.58,2.12,-16.9914975.00,-7.91,-4.81,0.84,0.34,0.46,-0.14,-56.58,2.12,-16.9915029.00,-8.13,-4.93,0.78,-0.02,0.69,-0.06,-56.58,2.12,-16.9915083.00,-8.37,-5.61,3.93,-0.42,0.19,0.21,-55.17,2.82,-14.9515137.00,-7.84,-4.44,0.29,-0.55,0.04,0.35,-55.17,2.82,-14.9515191.00,-8.26,-4.97,1.35,-0.17,-0.05,0.31,-57.11,2.64,-13.7615245.00,-8.02,-4.63,0.28,-0.46,0.39,0.19,-57.11,2.64,-13.7615299.00,-8.71,-4.58,-0.26,-0.33,0.32,0.11,-57.11,2.64,-13.7615353.00,-8.27,-5.20,1.76,-0.12,0.48,0.28,-58.16,2.64,-10.7015408.00,-8.60,-5.49,5.07,0.38,0.30,0.07,-58.16,2.64,-10.7015467.00,-7.93,-5.00,-0.92,0.21,0.56,-0.11,-60.62,1.23,-8.3215643.00,-7.76,-4.23,-2.22,-0.60,-0.10,-0.08,-59.74,3.17,-8.4915694.00,-8.69,-4.60,-0.06,-0.65,-0.48,0.07,-58.86,1.94,-11.3815746.00,-12.22,-5.02,-2.41,0.95,-1.69,0.55,-58.86,1.94,-11.3815797.00,-9.99,-6.49,-1.86,1.37,-3.82,-1.46,-58.86,1.94,-11.3815848.00,-2.62,-5.29,8.22,2.85,-3.61,-0.49,-53.06,2.82,-21.7415899.00,-2.84,-4.11,4.32,2.15,-1.98,-0.04,-53.06,2.82,-21.7415950.00,-4.34,-1.62,7.88,3.64,-2.26,0.90,-41.47,-8.11,-35.3316002.00,-4.92,-0.04,6.76,3.73,-1.77,1.05,-41.47,-8.11,-35.3316053.00,-4.14,2.21,8.50,4.35,-1.88,1.25,-30.75,-31.56,-34.4816104.00,-2.75,4.62,9.19,4.06,-0.72,0.71,-30.75,-31.56,-34.4816155.00,-2.68,5.47,7.64,2.16,-0.29,0.22,-30.75,-31.56,-34.4816207.00,-2.72,5.81,6.68,0.94,-0.26,0.56,-27.06,-49.36,-22.4216258.00,-2.02,6.92,6.28,2.45,-0.68,1.01,-27.06,-49.36,-22.4216309.00,-1.48,8.12,7.09,1.11,-0.78,0.69,-23.72,-53.06,-13.7616360.00,-0.95,7.86,5.82,0.95,-0.60,0.06,-23.72,-53.06,-13.7616411.00,-0.76,6.89,5.37,1.91,-0.64,-0.08,-23.72,-53.06,-13.7616463.00,-1.11,9.60,5.63,0.84,-0.66,0.54,-21.61,-56.59,-7.3016514.00,-1.30,9.81,6.88,-1.16,-0.22,-0.38,-21.61,-56.59,-7.3016565.00,-1.20,7.68,4.81,0.57,-0.35,-1.42,-21.44,-55.00,-9.5116801.00,-2.43,9.80,2.15,4.35,0.65,1.36,-28.64,-56.24,-4.5916853.00,-1.29,12.04,-1.16,4.35,1.96,0.63,-23.90,-55.71,16.6516904.00,-1.19,13.70,-0.42,-3.75,1.22,-4.24,-23.90,-55.71,16.6516956.00,2.77,10.65,-0.29,-4.38,3.51,-4.32,-26.53,-51.65,25.9917007.00,0.61,7.47,-3.54,-1.18,4.37,-4.32,-26.53,-51.65,25.9917058.00,-0.75,6.52,-5.84,0.47,4.37,-4.23,-39.18,-49.54,24.2917109.00,-6.65,5.91,-7.38,1.72,3.15,-3.23,-39.18,-49.54,24.2917161.00,-5.19,8.29,-5.79,2.38,2.47,-4.32,-39.18,-49.54,24.2917212.00,-2.73,-5.83,-7.63,1.68,2.62,-4.32,-41.82,-27.85,38.0517263.00,-5.99,1.93,-7.30,4.35,2.21,-1.18,-41.82,-27.85,38.0517315.00,-2.92,-1.66,-9.40,3.25,2.00,-3.68,-28.99,-6.17,44.6717366.00,-2.79,-9.74,-8.10,1.44,0.10,-0.47,-28.99,-6.17,44.6717418.00,-4.72,-3.71,-9.13,1.09,0.21,-0.10,-28.99,-6.17,44.6717469.00,-1.64,-10.70,-3.88,3.84,0.36,-0.87,-24.95,7.05,43.1417520.00,-2.28,-5.92,-5.61,1.55,0.90,0.13,-24.95,7.05,43.1417572.00,-1.09,-7.49,-6.75,-2.35,0.76,-0.31,-20.38,16.57,37.3717623.00,-1.58,-5.83,-8.01,-2.49,0.35,0.08,-20.38,16.57,37.3717674.00,-1.54,-5.88,-8.86,-1.77,0.16,-0.43,-20.38,16.57,37.3717726.00,-1.21,-6.45,-7.83,-0.99,0.03,0.04,-20.03,4.94,44.5017777.00,-0.98,-5.25,-8.24,-1.43,0.20,0.29,-20.03,4.94,44.5018002.00,-0.67,-3.36,-8.95,-0.97,0.11,-0.41,-16.52,-5.99,46.2018053.00,-0.81,-2.40,-9.90,-1.43,0.08,0.09,-16.52,-5.99,46.2018104.00,-0.74,-0.71,-9.25,-1.71,0.10,-0.15,-14.41,-12.69,45.8618156.00,0.18,1.67,-14.08,-3.14,0.58,-0.07,-14.41,-12.69,45.8618208.00,0.61,0.73,-10.96,-0.10,0.15,-0.29,-15.11,-22.57,45.5218259.00,-0.03,-0.26,-9.88,0.10,-0.08,-0.46,-15.11,-22.57,45.5218310.00,-0.21,-0.04,-9.81,0.07,0.15,-0.25,-15.81,-22.57,44.5018362.00,0.28,-0.36,-10.15,0.06,0.06,-0.51,-15.81,-22.57,44.5018414.00,0.19,-0.17,-10.23,0.01,0.00,-0.12,-15.81,-22.57,44.5018465.00,0.07,-0.01,-10.20,-0.00,-0.00,0.00,-17.04,-22.39,42.9718516.00,0.09,0.00,-10.20,-0.00,0.00,0.00,-17.04,-22.39,42.9718568.00,0.09,-0.02,-10.20,-0.00,0.00,0.00,-16.17,-22.92,44.8418620.00,0.11,-0.03,-10.18,0.00,0.00,0.00,-16.17,-22.92,44.8418671.00,0.09,-0.03,-10.19,-0.00,-0.00,-0.00,-16.17,-22.92,44.8418722.00,0.10,-0.03,-10.19,-0.00,-0.00,0.00,-17.04,-23.80,43.6518774.00,0.11,-0.01,-10.18,-0.00,0.00,0.00,-17.04,-23.80,43.6518826.00,0.10,-0.01,-10.21,-0.00,-0.00,0.00,-15.81,-22.21,44.1618877.00,0.10,-0.02,-10.17,-0.00,-0.00,0.00,-15.81,-22.21,44.1618928.00,0.09,-0.02,-10.18,-0.00,0.00,0.00,-17.04,-22.74,42.6319152.00,0.10,-0.01,-10.19,0.00,-0.00,0.00,-15.46,-22.57,45.5219203.00,0.09,-0.02,-10.19,0.00,-0.00,-0.00,-17.22,-22.92,45.1819255.00,0.09,-0.04,-10.14,-0.00,0.00,0.00,-17.22,-22.92,45.1819306.00,0.09,-0.04,-10.20,0.00,0.00,0.00,-15.46,-23.27,43.8219358.00,0.10,-0.03,-10.20,-0.00,0.00,0.00,-15.46,-23.27,43.8219409.00,0.11,-0.02,-10.19,-0.00,-0.00,0.00,-15.46,-23.27,43.8219461.00,0.10,-0.02,-10.19,-0.00,0.00,0.00,-17.75,-24.15,45.0119513.00,0.10,-0.03,-10.17,-0.00,-0.00,0.00,-17.75,-24.15,45.0119564.00,0.45,0.24,-11.63,-0.04,-0.15,-0.01,-17.75,-24.15,45.0119616.00,0.76,-0.07,-10.46,-0.03,0.33,-0.05,-16.34,-21.68,43.9919667.00,-1.07,1.49,-9.97,-0.10,-0.01,-3.10,-16.34,-21.68,43.9919719.00,1.03,2.43,-10.16,0.06,0.02,-4.32,-18.27,-25.39,43.4819770.00,0.16,-2.46,-9.68,0.32,0.01,-4.32,-18.27,-25.39,43.4819822.00,2.01,-0.46,-10.17,0.12,-0.02,-4.32,-27.76,-21.16,44.1619874.00,-0.89,0.08,-10.01,-0.27,-0.05,0.44,-27.76,-21.16,44.1619925.00,0.32,-0.04,-10.15,0.05,0.03,0.54,-27.24,-22.04,45.3519977.00,-0.04,0.35,-10.11,0.03,0.01,0.03,-27.24,-22.04,45.3520029.00,0.25,0.12,-10.23,-0.04,-0.03,-0.19,-27.24,-22.04,45.3520080.00,0.24,0.04,-10.20,0.02,0.01,-0.08,-27.24,-22.74,43.6520301.00,0.18,0.13,-10.20,-0.00,-0.00,0.00,-27.24,-22.04,45.6920352.00,0.36,0.20,-10.28,-0.01,-0.01,0.00,-29.34,-22.04,45.3520404.00,0.45,0.99,-11.12,0.08,0.09,-0.08,-29.34,-22.04,45.3520455.00,0.02,1.18,-10.79,-0.24,0.10,-0.55,-28.46,-20.80,44.5020507.00,0.95,-1.02,-10.00,-0.12,0.05,-0.81,-28.46,-20.80,44.5020559.00,0.18,0.48,-10.27,-0.16,-0.03,0.10,-28.46,-20.80,44.5020611.00,0.16,0.39,-10.15,0.06,-0.01,-0.02,-28.64,-22.04,44.6720662.00,-0.06,0.72,-10.15,0.01,-0.01,-0.77,-28.64,-22.04,44.6720714.00,0.26,0.31,-10.22,-0.04,0.00,-0.73,-29.69,-21.33,44.3320766.00,0.20,0.36,-10.25,-0.06,-0.01,-0.25,-29.69,-21.33,44.3320817.00,0.16,0.33,-10.17,0.03,0.00,-0.10,-29.69,-19.57,45.6920869.00,0.41,-0.06,-10.24,-0.03,0.02,0.12,-29.69,-19.57,45.6920921.00,0.11,0.44,-10.17,-0.01,0.00,0.14,-29.69,-19.57,45.6920972.00,0.15,0.43,-10.22,-0.04,0.01,0.03,-29.69,-20.98,45.3521024.00,0.17,0.30,-10.18,0.00,0.02,0.01,-29.69,-20.98,45.3521076.00,0.17,0.38,-10.23,-0.06,-0.02,0.03,-30.75,-20.63,44.6721128.00,0.21,0.30,-10.18,0.03,-0.00,-0.03,-30.75,-20.63,44.6721179.00,0.18,0.36,-10.20,0.03,0.03,0.01,-30.75,-20.63,44.6721231.00,0.22,0.34,-10.18,0.07,0.04,0.04,-28.99,-20.63,43.6521465.00,0.12,0.71,-10.24,-0.18,-0.10,0.31,-27.59,-21.33,42.6321517.00,0.28,0.35,-10.26,0.27,-0.05,-0.25,-27.59,-21.33,42.6321568.00,0.10,-0.19,-9.90,0.23,0.13,-0.24,-29.52,-20.45,43.8221620.00,0.14,-0.01,-10.18,-0.31,-0.06,0.08,-29.52,-20.45,43.8221672.00,0.23,0.17,-10.11,0.18,-0.12,-0.07,-29.52,-20.45,43.8221724.00,0.18,0.37,-10.21,-0.00,0.00,0.00,-31.45,-20.63,44.6721775.00,0.13,0.36,-10.20,0.00,0.00,-0.01,-31.45,-20.63,44.6721827.00,0.13,0.37,-10.19,0.02,-0.00,-0.02,-30.40,-20.27,44.6721879.00,0.15,0.38,-10.18,-0.03,0.00,-0.03,-30.40,-20.27,44.6721931.00,0.15,0.39,-10.19,0.02,0.01,-0.03,-30.40,-20.27,44.6721982.00,0.17,0.32,-10.17,-0.01,0.00,-0.01,-30.05,-22.04,45.0122034.00,0.10,0.47,-10.22,0.02,0.00,-0.02,-30.05,-22.04,45.0122086.00,0.18,0.31,-10.20,0.02,0.00,-0.04,-29.52,-19.39,44.1622138.00,0.14,0.34,-10.18,0.01,0.00,-0.02,-29.52,-19.39,44.1622190.00,0.16,0.39,-10.23,0.04,-0.00,-0.01,-29.69,-19.92,45.0122241.00,0.15,0.24,-10.16,0.01,-0.00,-0.02,-29.69,-19.92,45.0122293.00,0.14,0.29,-10.20,0.01,-0.00,-0.01,-29.69,-19.92,45.0122345.00,0.15,0.30,-10.22,-0.01,-0.00,-0.01,-29.52,-22.57,44.5022397.00,0.17,0.34,-10.20,-0.03,0.00,-0.01,-29.52,-22.57,44.5022618.00,0.14,0.35,-10.22,0.00,0.00,-0.01,-31.28,-21.16,44.5022670.00,0.15,0.37,-10.20,0.01,-0.00,-0.00,-31.28,-21.16,44.5022722.00,0.15,0.30,-10.20,0.02,-0.00,0.00,-29.87,-20.45,45.1822774.00,0.15,0.35,-10.18,-0.01,-0.00,0.01,-29.87,-20.45,45.1822826.00,0.16,0.33,-10.20,0.00,-0.00,0.01,-29.87,-20.45,45.1822877.00,0.15,0.28,-10.14,0.03,-0.00,0.00,-30.05,-21.33,43.9922929.00,0.13,0.29,-10.13,0.02,-0.00,-0.01,-30.05,-21.33,43.9922981.00,0.14,0.36,-10.21,-0.00,-0.00,-0.04,-31.10,-19.57,46.3723033.00,0.15,0.30,-10.18,-0.01,0.00,-0.03,-31.10,-19.57,46.3723085.00,0.17,0.30,-10.21,-0.01,0.00,-0.04,-30.05,-21.33,43.9923137.00,0.14,0.29,-10.17,0.01,-0.00,-0.05,-30.05,-21.33,43.9923189.00,0.15,0.30,-10.20,-0.01,-0.00,-0.03,-30.05,-20.98,43.9923240.00,0.15,0.27,-10.20,0.00,-0.00,-0.01,-30.05,-20.98,43.9923292.00,0.14,0.32,-10.18,-0.00,-0.00,-0.02,-30.05,-20.98,43.9923344.00,0.13,0.28,-10.22,0.03,0.01,-0.02,-29.69,-20.98,45.0123396.00,0.15,0.37,-10.20,-0.04,0.01,0.00,-29.69,-20.98,45.0123448.00,0.16,0.28,-10.15,-0.02,-0.01,-0.02,-29.69,-20.98,45.0123500.00,0.10,-0.30,-9.87,-0.04,-0.01,-0.00,-29.87,-21.86,44.5023552.00,0.15,0.47,-10.18,-0.02,0.02,0.05,-29.87,-21.86,44.5023779.00,0.17,0.41,-10.18,0.01,0.00,-0.00,-30.40,-20.27,44.6723831.00,0.14,0.40,-10.21,0.03,-0.01,-0.01,-29.69,-20.98,45.6923883.00,0.18,0.33,-10.16,-0.04,-0.01,-0.01,-29.69,-20.98,45.6923934.00,0.13,0.46,-10.18,0.02,-0.00,-0.01,-29.69,-20.98,45.6923986.00,0.11,0.42,-10.20,0.02,0.04,-0.02,-30.40,-19.22,43.9924038.00,0.18,0.39,-10.17,-0.04,0.02,0.03,-30.40,-19.22,43.9924090.00,0.16,0.48,-10.21,-0.00,0.02,0.06,-30.05,-22.04,43.3124142.00,0.21,0.39,-10.15,0.04,0.01,-0.00,-30.05,-22.04,43.3124194.00,0.20,0.42,-10.22,0.02,0.02,0.02,-29.34,-21.68,42.6324245.00,0.19,0.42,-10.21,0.05,0.03,0.02,-29.34,-21.68,42.6324297.00,0.23,0.45,-10.23,0.41,0.15,-0.40,-29.34,-21.68,42.6324349.00,0.29,-0.32,-9.98,0.15,0.07,-0.23,-28.46,-20.80,42.1224401.00,0.06,0.20,-10.16,-0.32,-0.09,0.18,-28.46,-20.80,42.1224453.00,0.07,1.35,-10.75,-0.45,-0.22,0.72,-31.28,-20.10,42.8024505.00,0.33,0.86,-10.51,0.76,0.08,-0.36,-31.28,-20.10,42.8024557.00,0.31,-0.34,-10.08,-0.17,0.01,-0.06,-31.28,-20.10,42.8024609.00,-0.04,0.35,-10.28,-0.26,-0.02,0.25,-29.87,-20.45,42.4624661.00,0.04,0.64,-10.28,-0.05,-0.19,-0.07,-29.87,-20.45,42.4624713.00,0.16,0.30,-10.22,-0.00,-0.01,-0.06,-29.52,-22.57,44.1624947.00,0.14,0.41,-10.20,-0.00,0.00,0.00,-30.22,-19.39,46.5424999.00,0.12,0.40,-10.20,0.01,0.00,0.00,-30.05,-20.63,44.6725051.00,0.16,0.34,-10.18,0.00,-0.00,-0.00,-30.05,-20.63,44.6725103.00,0.13,0.39,-10.18,-0.01,-0.00,0.00,-30.05,-20.63,45.6925155.00,0.16,0.42,-10.20,-0.00,0.00,0.00,-30.05,-20.63,45.6925207.00,0.16,0.38,-10.18,0.00,-0.00,0.00,-30.05,-20.63,45.6925258.00,0.14,0.36,-10.19,0.00,-0.00,-0.00,-29.52,-19.75,45.8625311.00,0.12,0.35,-10.18,0.01,-0.00,-0.00,-29.52,-19.75,45.8625363.00,0.14,0.38,-10.21,0.00,-0.00,-0.00,-30.75,-19.57,45.3525415.00,0.14,0.38,-10.21,-0.01,-0.00,-0.00,-30.75,-19.57,45.3525466.00,0.15,0.38,-10.23,0.00,-0.00,-0.01,-29.52,-20.80,44.8425519.00,0.14,0.40,-10.20,-0.00,-0.00,-0.01,-29.52,-20.80,44.8425571.00,0.14,0.40,-10.16,0.00,0.00,-0.00,-30.05,-20.98,44.6725623.00,0.13,0.39,-10.20,0.00,-0.00,-0.01,-30.05,-20.98,44.6725674.00,0.14,0.28,-10.19,0.01,0.00,-0.03,-30.05,-20.98,44.6725727.00,0.13,0.35,-10.20,0.01,-0.00,-0.02,-30.57,-21.86,44.5025778.00,0.13,0.38,-10.18,0.01,0.00,-0.00,-30.57,-21.86,44.5025830.00,0.14,0.37,-10.22,-0.00,-0.00,-0.01,-30.57,-21.86,44.5025882.00,0.15,0.37,-10.20,0.01,-0.00,-0.01,-30.22,-20.45,44.8425935.00,0.14,0.38,-10.22,0.01,-0.00,-0.02,-30.22,-20.45,44.8426154.00,0.17,0.30,-10.19,-0.01,-0.00,0.00,-30.75,-19.57,45.6926206.00,0.11,0.44,-10.21,-0.07,-0.02,0.05,-30.75,-19.57,45.6926259.00,0.11,0.44,-10.22,0.06,0.01,-0.03,-30.92,-20.45,45.8626311.00,0.16,0.23,-10.18,0.04,0.01,-0.02,-30.92,-20.45,45.8626363.00,0.16,0.34,-10.22,0.03,0.02,0.01,-30.40,-19.92,45.0126415.00,0.13,0.39,-10.18,0.07,0.00,-0.05,-30.40,-19.92,45.0126467.00,0.18,-0.06,-10.09,-0.01,-0.03,-0.05,-28.82,-20.80,44.1626519.00,0.13,0.49,-10.24,-0.06,-0.00,0.11,-28.82,-20.80,44.1626571.00,0.14,0.33,-10.19,0.03,0.01,0.02,-28.82,-20.80,44.1626624.00,0.14,0.40,-10.19,0.00,-0.01,0.01,-29.69,-19.57,45.6926676.00,0.14,0.35,-10.21,0.02,-0.00,-0.01,-29.69,-19.57,45.6926728.00,0.15,0.32,-10.22,-0.00,-0.01,0.00,-30.40,-20.27,42.9726780.00,0.13,0.36,-10.22,0.11,0.00,-0.03,-30.40,-20.27,42.9726832.00,0.24,-0.07,-9.80,0.09,-0.12,-0.20,-30.57,-18.69,44.5026884.00,0.06,0.36,-10.21,0.00,-0.05,-0.04,-30.57,-18.69,44.5026937.00,0.03,0.24,-10.19,-0.01,0.01,0.05,-30.57,-18.69,44.5026989.00,-0.11,0.32,-10.17,-0.09,0.01,0.12,-32.33,-19.39,47.9027041.00,0.18,0.81,-10.45,0.04,-0.07,0.03,-32.33,-19.39,47.9027093.00,-0.61,-0.37,-10.17,0.10,-0.00,-0.20,-29.87,-18.33,47.5627315.00,0.10,0.35,-10.19,-0.01,-0.02,-0.03,-30.05,-21.33,44.6727367.00,0.10,0.38,-10.22,0.02,0.01,0.00,-30.92,-18.69,45.5227419.00,0.11,0.28,-10.18,0.02,0.00,-0.05,-30.92,-18.69,45.5227472.00,0.12,0.33,-10.18,-0.01,0.01,-0.02,-30.40,-19.22,46.0327524.00,0.11,0.32,-10.21,-0.01,0.00,-0.01,-30.40,-19.22,46.0327576.00,0.09,0.48,-10.36,-0.03,0.01,0.01,-30.40,-19.22,46.0327628.00,0.11,0.38,-10.20,-0.01,-0.00,-0.00,-30.05,-20.63,45.3527680.00,0.11,0.36,-10.20,0.00,0.00,0.00,-30.05,-20.63,45.3527733.00,0.11,0.34,-10.19,0.01,0.00,0.00,-30.57,-20.10,46.5427785.00,0.10,0.36,-10.20,-0.01,-0.00,0.00,-30.57,-20.10,46.5427837.00,0.11,0.33,-10.20,0.00,-0.00,-0.00,-30.40,-20.63,44.6727889.00,0.10,0.35,-10.21,-0.01,-0.00,-0.00,-30.40,-20.63,44.6727941.00,0.11,0.36,-10.20,-0.01,-0.00,-0.01,-30.40,-20.63,44.6727994.00,0.11,0.37,-10.20,0.01,0.00,-0.00,-29.87,-19.04,44.5028046.00,0.10,0.34,-10.19,0.01,0.00,-0.00,-29.87,-19.04,44.5028098.00,0.12,0.37,-10.21,-0.00,0.00,0.00,-31.63,-20.45,45.5228150.00,0.11,0.35,-10.20,0.00,-0.00,0.00,-31.63,-20.45,45.5228203.00,0.09,0.24,-10.14,0.01,-0.00,0.00,-31.63,-20.45,45.5228255.00,0.11,0.38,-10.22,-0.02,0.00,0.00,-30.57,-20.10,45.1828490.00,0.10,0.39,-10.20,-0.01,-0.00,0.00,-29.69,-19.57,45.3528542.00,0.11,0.35,-10.19,-0.01,-0.00,0.00,-29.69,-19.57,45.3528595.00,0.12,0.35,-10.20,0.01,-0.00,0.00,-30.40,-20.27,45.3528647.00,0.11,0.33,-10.17,-0.01,-0.00,0.00,-30.40,-20.27,45.3528699.00,0.11,0.38,-10.22,-0.00,-0.00,-0.00,-30.40,-20.27,45.3528751.00,0.12,0.35,-10.20,0.01,-0.00,0.00,-30.22,-19.75,44.5028804.00,0.10,0.33,-10.17,0.02,-0.00,-0.00,-30.22,-19.75,44.5028856.00,0.12,0.30,-10.19,-0.01,0.00,0.01,-30.92,-20.80,44.8428908.00,0.13,0.37,-10.17,-0.01,-0.00,0.01,-30.92,-20.80,44.8428960.00,0.10,0.35,-10.19,0.04,-0.00,-0.03,-30.92,-20.80,44.8429013.00,0.16,0.20,-10.15,-0.00,-0.00,-0.02,-30.05,-19.92,45.0129065.00,0.11,0.35,-10.19,-0.00,0.00,0.01,-30.05,-19.92,45.0129117.00,0.11,0.38,-10.19,0.02,0.00,-0.01,-31.28,-21.51,45.5229170.00,0.11,0.35,-10.19,0.03,-0.00,-0.02,-31.28,-21.51,45.5229222.00,0.11,0.27,-10.21,0.00,-0.00,-0.02,-30.75,-19.22,45.3529274.00,0.11,0.34,-10.21,-0.02,-0.00,0.01,-30.75,-19.22,45.3529326.00,0.10,0.41,-10.22,-0.02,0.00,0.02,-30.75,-19.22,45.3529379.00,0.11,0.36,-10.19,0.00,-0.00,-0.00,-31.63,-20.10,45.1829431.00,0.09,0.35,-10.20,0.01,-0.00,-0.01,-31.63,-20.10,45.1829659.00,0.17,0.13,-10.13,0.19,0.04,-0.08,-31.98,-20.45,47.9029711.00,0.11,-0.06,-10.08,0.11,-0.02,-0.07,-31.98,-20.45,47.9029764.00,0.17,0.06,-10.14,-0.09,0.09,0.12,-28.82,-19.04,47.5629816.00,0.74,0.67,-9.97,-0.21,-0.08,0.36,-28.82,-19.04,47.5629868.00,0.19,0.07,-9.83,-0.04,-0.01,-0.01,-29.34,-18.16,44.6729921.00,0.12,0.29,-10.16,-0.09,0.03,-0.09,-29.34,-18.16,44.6729973.00,0.12,0.33,-10.18,0.04,-0.00,-0.02,-29.34,-18.16,44.6730026.00,0.12,0.31,-10.19,0.00,0.00,0.01,-29.87,-20.80,45.1830078.00,0.12,0.35,-10.20,0.01,-0.00,-0.01,-29.87,-20.80,45.1830131.00,0.12,0.32,-10.20,0.00,-0.00,-0.02,-30.57,-19.39,46.2030183.00,0.13,0.38,-10.21,-0.00,-0.00,-0.00,-30.57,-19.39,46.2030235.00,0.10,0.39,-10.23,-0.01,-0.00,-0.00,-30.40,-19.92,44.6730288.00,0.11,0.36,-10.18,-0.00,0.00,-0.01,-30.40,-19.92,44.6730340.00,0.11,0.33,-10.21,-0.01,-0.00,-0.00,-30.22,-20.45,45.5230393.00,0.10,0.33,-10.20,0.01,-0.00,-0.01,-30.22,-20.45,45.5230445.00,0.12,0.34,-10.21,-0.01,-0.00,-0.00,-30.22,-20.45,45.5230498.00,0.11,0.37,-10.22,-0.01,0.00,0.00,-30.75,-20.27,45.3530551.00,0.11,0.33,-10.16,0.01,-0.00,0.00,-30.75,-20.27,45.3530603.00,0.11,0.41,-10.21,-0.01,-0.00,0.00,-30.40,-19.22,46.0330839.00,0.06,0.52,-10.26,0.07,0.01,-0.05,-30.92,-20.80,45.5230891.00,-0.09,0.07,-10.15,0.21,-0.03,-0.30,-30.92,-20.80,45.5230944.00,0.09,0.21,-10.16,-0.07,0.06,0.09,-30.92,-20.80,45.5230996.00,0.10,0.25,-10.22,0.15,-0.03,0.00,-29.34,-18.86,46.3731049.00,0.11,0.02,-10.11,0.14,0.03,-0.04,-29.34,-18.86,46.3731101.00,0.07,-0.06,-10.13,0.13,0.02,-0.01,-30.40,-18.16,46.7131154.00,-0.09,-0.01,-10.26,-0.13,0.06,0.14,-30.40,-18.16,46.7131206.00,0.57,0.79,-10.46,-0.34,-0.20,0.41,-30.40,-18.16,46.7131259.00,0.02,-0.23,-10.04,0.31,0.04,-0.27,-31.28,-20.80,45.5231311.00,0.10,0.05,-10.11,0.04,0.05,0.03,-31.28,-20.80,45.5231364.00,-0.04,0.10,-10.21,-0.17,0.06,0.18,-30.22,-20.10,45.1831416.00,0.04,0.63,-10.38,-0.16,-0.17,-0.20,-30.22,-20.10,45.1831469.00,0.08,0.21,-10.12,-0.07,0.00,-0.12,-30.22,-20.10,45.1831522.00,0.14,0.31,-10.22,-0.02,0.00,0.00,-30.57,-19.39,46.2031574.00,0.10,0.32,-10.19,-0.01,0.00,0.00,-30.57,-19.39,46.2031627.00,0.12,0.30,-10.24,-0.00,-0.00,-0.00,-29.17,-20.45,46.5431679.00,0.11,0.35,-10.21,-0.01,-0.00,0.00,-29.17,-20.45,46.5431732.00,0.11,0.30,-10.20,-0.01,-0.00,0.00,-31.28,-20.80,44.5031784.00,0.10,0.36,-10.21,-0.01,-0.00,0.00,-31.28,-20.80,44.5031959.00,0.12,0.36,-10.20,-0.00,-0.00,0.00,-29.17,-20.80,46.2032012.00,0.11,0.35,-10.21,0.00,-0.00,-0.00,-30.57,-19.75,44.8432064.00,0.12,0.35,-10.18,-0.00,-0.00,0.00,-30.57,-19.75,44.8432117.00,0.11,0.34,-10.19,-0.02,-0.00,0.00,-31.45,-20.27,46.7132169.00,0.11,0.35,-10.23,-0.01,-0.00,0.00,-31.45,-20.27,46.7132222.00,0.13,0.31,-10.16,-0.08,0.00,0.01,-31.98,-21.16,46.2032274.00,0.11,0.35,-10.17,-0.01,0.00,0.02,-31.98,-21.16,46.2032327.00,0.11,0.41,-10.18,-0.01,-0.00,0.01,-31.98,-21.16,46.2032379.00,0.11,0.40,-10.19,0.00,-0.00,-0.00,-31.45,-20.98,43.6532432.00,0.11,0.42,-10.21,0.00,0.00,0.00,-31.45,-20.98,43.6532485.00,0.13,0.40,-10.21,0.03,-0.00,-0.00,-30.75,-21.68,46.3732537.00,0.10,0.42,-10.21,-0.04,-0.00,0.01,-30.75,-21.68,46.3732590.00,0.11,0.50,-10.25,0.01,0.00,0.01,-30.75,-21.68,46.3732642.00,0.10,0.37,-10.19,-0.01,-0.00,0.00,-30.05,-21.33,45.3532695.00,0.13,0.41,-10.17,0.00,-0.00,-0.01,-30.05,-21.33,45.3532747.00,0.08,0.47,-10.19,-0.00,-0.00,0.00,-32.51,-20.63,45.6932800.00,0.11,0.40,-10.22,-0.00,-0.01,-0.00,-32.51,-20.63,45.6932852.00,0.05,0.33,-10.28,-0.01,-0.01,-0.00,-32.51,-20.63,45.6932905.00,0.06,0.10,-10.32,0.01,0.00,0.01,-29.34,-21.68,45.6933138.00,0.27,0.31,-10.14,0.01,0.00,0.01,-30.40,-23.09,46.0333191.00,0.03,0.35,-10.22,0.01,0.00,0.01,-30.40,-23.09,46.0333244.00,0.17,0.37,-10.20,0.01,0.00,0.03,-30.22,-21.86,46.8833296.00,0.07,0.39,-10.19,0.01,0.01,0.01,-30.22,-21.86,46.8833349.00,0.18,0.33,-10.17,0.05,0.02,-0.00,-30.22,-21.86,46.8833402.00,0.07,0.40,-10.21,0.05,0.02,-0.02,-31.45,-19.57,45.0133454.00,0.16,0.30,-10.16,0.02,0.01,0.00,-31.45,-19.57,45.0133507.00,0.12,0.30,-10.18,0.02,0.02,-0.00,-30.75,-19.92,46.0333560.00,0.19,0.28,-10.18,0.03,-0.00,-0.00,-30.75,-19.92,46.0333612.00,0.14,0.26,-10.18,-0.00,0.00,-0.00,-32.68,-20.45,44.8433665.00,0.14,0.28,-10.20,0.02,0.00,0.00,-32.68,-20.45,44.8433718.00,0.18,0.30,-10.20,-0.01,0.01,-0.00,-32.68,-20.45,44.8433770.00,0.06,0.57,-10.27,0.14,0.02,-0.07,-29.34,-21.68,43.9933823.00,0.16,0.25,-10.28,-0.10,0.03,-0.00,-29.34,-21.68,43.9933876.00,0.23,0.16,-10.17,-0.07,0.06,0.01,-29.87,-20.45,44.8433928.00,0.64,0.55,-10.10,-0.27,-0.06,0.26,-29.87,-20.45,44.8433981.00,0.40,0.15,-10.31,0.43,0.01,-0.20,-31.80,-19.57,43.6534034.00,0.10,-0.08,-9.99,0.12,0.12,-0.22,-31.80,-19.57,43.6534086.00,0.14,0.25,-10.22,-0.34,-0.01,0.15,-31.80,-19.57,43.6534309.00,0.11,0.37,-10.20,0.01,-0.00,0.00,-30.75,-21.33,43.6534362.00,0.11,0.42,-10.22,0.01,-0.00,-0.00,-29.87,-21.16,45.1834415.00,0.12,0.29,-10.20,0.03,-0.00,-0.03,-29.87,-21.16,45.1834468.00,0.13,0.35,-10.19,-0.01,-0.00,0.00,-29.87,-21.16,45.1834521.00,0.13,0.32,-10.19,-0.05,-0.00,0.01,-29.17,-20.45,45.1834574.00,0.13,0.39,-10.18,-0.03,0.00,0.01,-29.17,-20.45,45.1834626.00,0.10,0.35,-10.18,0.00,-0.00,0.00,-31.45,-20.63,44.3334679.00,0.12,0.40,-10.20,0.00,-0.00,0.00,-31.45,-20.63,44.3334732.00,0.11,0.37,-10.19,0.01,0.00,0.00,-31.45,-20.63,44.3334785.00,0.12,0.37,-10.19,-0.00,-0.00,0.00,-31.63,-20.80,45.1834838.00,0.12,0.41,-10.20,-0.01,-0.00,0.00,-31.63,-20.80,45.1834890.00,0.12,0.37,-10.20,0.00,-0.00,-0.00,-31.45,-22.74,44.3334943.00,0.12,0.37,-10.18,0.01,-0.00,-0.00,-31.45,-22.74,44.3334996.00,0.10,0.36,-10.21,0.00,-0.00,-0.00,-30.92,-21.86,45.5235049.00,0.11,0.41,-10.23,0.00,-0.00,-0.00,-30.92,-21.86,45.5235101.00,0.12,0.37,-10.21,0.01,0.00,-0.00,-30.57,-20.80,44.8435154.00,0.11,0.35,-10.19,0.00,0.00,-0.00,-30.57,-20.80,44.8435207.00,0.12,0.38,-10.21,0.01,-0.00,-0.00,-30.57,-20.80,44.8435260.00,0.11,0.36,-10.20,0.03,-0.00,-0.01,-32.15,-22.39,45.6935485.00,0.10,0.34,-10.22,-0.00,-0.01,0.01,-31.45,-21.68,46.0335539.00,0.10,0.28,-10.20,-0.00,-0.01,0.00,-31.45,-21.68,46.0335592.00,0.10,0.32,-10.20,-0.00,-0.00,-0.00,-31.45,-21.68,46.0335645.00,0.12,0.29,-10.22,0.00,0.01,0.02,-31.10,-21.68,46.0335698.00,0.11,0.35,-10.21,-0.01,-0.00,0.01,-31.10,-21.68,46.0335751.00,0.11,0.23,-10.17,0.02,-0.00,-0.01,-30.57,-19.04,46.8835803.00,0.11,0.28,-10.22,0.01,-0.01,-0.00,-30.57,-19.04,46.8835856.00,0.12,0.31,-10.19,0.01,0.00,-0.00,-30.57,-19.04,46.8835909.00,0.11,0.24,-10.18,0.04,-0.01,-0.00,-30.92,-21.16,46.5435962.00,0.11,0.32,-10.22,0.01,0.01,0.01,-30.92,-21.16,46.5436015.00,0.13,0.24,-10.21,0.02,0.00,0.01,-31.28,-21.16,45.8636068.00,0.13,0.29,-10.21,0.06,0.02,-0.01,-31.28,-21.16,45.8636121.00,0.14,0.22,-10.21,0.02,0.03,0.00,-30.05,-22.74,45.6936174.00,0.16,0.20,-10.17,0.10,0.02,-0.04,-30.05,-22.74,45.6936227.00,0.23,0.14,-10.19,0.16,0.03,-0.12,-30.05,-22.74,45.6936280.00,0.15,-0.03,-10.13,0.10,0.03,-0.01,-31.45,-18.86,45.6936333.00,0.19,0.05,-10.18,0.23,0.06,-0.21,-31.45,-18.86,45.6936386.00,0.47,0.15,-10.14,-0.29,0.07,-0.02,-30.92,-19.04,44.5036438.00,0.05,0.27,-10.26,-0.63,-0.24,0.61,-30.92,-19.04,44.5036669.00,0.16,0.20,-10.20,-0.02,-0.01,-0.07,-30.75,-21.68,44.6736723.00,0.15,0.28,-10.19,-0.02,-0.00,-0.01,-30.75,-21.68,44.6736776.00,0.11,0.36,-10.21,0.01,0.00,-0.01,-31.80,-20.98,45.3536829.00,0.13,0.36,-10.18,-0.02,0.00,-0.04,-31.80,-20.98,45.3536882.00,0.11,0.23,-10.19,0.02,-0.01,0.00,-30.75,-19.92,45.3536935.00,0.13,0.36,-10.19,-0.01,-0.00,0.00,-30.75,-19.92,45.3536988.00,0.12,0.33,-10.23,0.01,-0.01,-0.00,-30.75,-22.04,46.3737041.00,0.11,0.32,-10.19,0.01,0.00,0.00,-30.75,-22.04,46.3737093.00,0.13,0.36,-10.18,-0.01,-0.00,0.00,-30.75,-22.04,46.3737147.00,0.11,0.35,-10.19,0.00,-0.00,0.00,-30.05,-21.33,45.0137199.00,0.12,0.37,-10.20,-0.00,-0.00,0.00,-30.05,-21.33,45.0137252.00,0.10,0.37,-10.22,0.01,-0.00,0.00,-31.28,-20.10,46.5437305.00,0.11,0.46,-10.22,-0.00,-0.00,-0.01,-31.28,-20.10,46.5437358.00,0.12,0.34,-10.20,-0.00,0.01,-0.03,-31.28,-20.10,46.5437411.00,0.15,0.35,-10.22,-0.04,-0.00,-0.03,-29.87,-22.21,46.2037464.00,0.13,0.42,-10.21,-0.00,-0.00,-0.03,-29.87,-22.21,46.2037517.00,0.15,0.26,-10.23,0.01,0.00,-0.03,-31.80,-22.04,45.3537571.00,0.10,0.54,-10.21,-0.06,-0.00,0.01,-31.80,-22.04,45.3537623.00,0.19,0.42,-10.22,-0.04,0.00,0.01,-31.98,-20.45,45.1837856.00,0.13,0.43,-10.20,0.00,-0.00,0.00,-31.10,-22.04,43.9937909.00,0.13,0.39,-10.18,0.00,0.00,0.00,-31.98,-21.16,43.4837962.00,0.11,0.43,-10.19,0.01,-0.00,-0.00,-31.98,-21.16,43.4838015.00,0.13,0.32,-10.20,0.00,-0.00,-0.03,-30.57,-21.86,45.1838068.00,0.11,0.40,-10.19,0.00,0.01,0.00,-30.57,-21.86,45.1838121.00,0.11,0.40,-10.23,-0.00,0.00,0.00,-30.57,-21.86,45.1838174.00,0.11,0.41,-10.21,0.01,0.00,0.00,-30.05,-20.98,44.6738227.00,0.12,0.40,-10.20,-0.01,-0.00,-0.00,-30.05,-20.98,44.6738280.00,0.12,0.42,-10.21,0.00,0.00,0.01,-30.75,-21.33,45.0138333.00,0.14,0.41,-10.20,-0.01,-0.00,0.01,-30.75,-21.33,45.0138387.00,0.11,0.39,-10.21,0.01,0.00,0.01,-30.22,-21.86,45.8638440.00,0.13,0.38,-10.20,0.01,0.00,0.01,-30.22,-21.86,45.8638493.00,0.13,0.41,-10.19,-0.00,-0.00,0.01,-30.22,-21.86,45.8638546.00,0.09,0.51,-10.26,-0.03,-0.01,0.01,-30.05,-21.33,43.6538599.00,0.11,0.46,-10.21,0.01,-0.01,-0.01,-30.05,-21.33,43.6538652.00,0.09,0.37,-10.24,-0.05,-0.02,-0.00,-31.45,-22.39,45.3538705.00,0.07,0.61,-10.28,-0.04,0.01,0.07,-31.45,-22.39,45.3538758.00,0.11,0.36,-10.22,-0.02,-0.01,0.01,-31.10,-20.63,45.3538812.00,0.09,0.42,-10.20,0.02,0.01,0.03,-31.10,-20.63,45.3539032.00,0.26,0.16,-10.16,0.12,0.06,-0.06,-32.15,-22.04,46.0339085.00,0.22,-0.06,-10.12,0.08,0.11,-0.10,-32.15,-22.04,46.0339138.00,0.23,-0.18,-9.99,-0.08,-0.05,-0.08,-29.69,-22.04,45.3539191.00,0.19,-0.67,-10.23,-0.01,0.07,0.46,-29.69,-22.04,45.3539245.00,0.70,1.52,-10.51,0.17,-0.03,0.66,-28.11,-21.86,44.8439298.00,0.04,0.47,-10.28,0.00,-0.03,0.17,-28.11,-21.86,44.8439351.00,0.27,0.05,-10.20,0.05,0.04,0.00,-28.11,-21.86,44.8439404.00,0.26,0.07,-10.19,0.02,0.02,0.00,-31.28,-22.21,45.1839457.00,0.22,0.09,-10.12,0.02,0.02,0.00,-31.28,-22.21,45.1839510.00,0.27,0.14,-10.28,0.01,0.01,0.00,-29.34,-20.63,46.0339563.00,0.46,1.83,-11.18,-0.08,-0.10,0.01,-29.34,-20.63,46.0339617.00,-0.61,2.69,-10.16,0.17,-0.46,-1.18,-29.34,-20.63,46.0339670.00,0.99,1.01,-11.50,-0.55,0.54,-1.36,-32.68,-19.75,45.5239723.00,0.32,0.04,-10.52,0.10,-0.03,-1.03,-32.68,-19.75,45.5239776.00,0.39,-0.80,-9.87,0.03,0.01,-0.63,-33.21,-18.51,45.6939829.00,0.05,-0.55,-10.25,0.19,-0.07,-0.95,-33.21,-18.51,45.6939882.00,0.28,-0.19,-10.34,-0.07,-0.05,-0.84,-33.21,-18.51,45.6939936.00,0.28,0.06,-10.21,-0.06,-0.04,-0.57,-33.21,-18.51,45.6939989.00,0.16,0.15,-10.15,-0.03,-0.02,-0.25,-33.21,-18.51,45.6940042.00,0.19,0.11,-9.87,0.01,0.01,-0.04,-34.61,-14.99,45.6940280.00,-0.03,0.37,-10.22,0.00,0.00,0.03,-32.15,-18.16,46.0340333.00,0.54,0.05,-10.05,-0.03,-0.01,-0.56,-32.15,-18.16,46.0340387.00,0.28,-0.45,-9.88,-0.18,0.12,-0.38,-32.86,-16.40,45.0140440.00,0.53,-0.21,-10.20,-0.09,0.02,0.50,-32.86,-16.40,45.0140493.00,0.37,0.23,-10.21,0.28,0.02,0.84,-32.86,-16.40,45.0140547.00,0.56,0.37,-10.35,-0.18,-0.03,0.07,-32.86,-16.75,46.0340600.00,-0.32,0.56,-10.20,-0.18,-0.06,-0.11,-32.86,-16.75,46.0340653.00,0.20,0.16,-10.12,-0.12,-0.04,0.04,-32.51,-15.69,46.3740707.00,0.17,0.37,-10.23,0.08,0.02,0.15,-32.51,-15.69,46.3740760.00,0.24,0.16,-10.16,0.00,-0.01,0.15,-33.03,-17.28,48.9240813.00,0.13,0.59,-10.32,-0.25,-0.04,-0.08,-33.03,-17.28,48.9240867.00,0.27,0.36,-10.19,-0.17,-0.03,-0.23,-33.03,-17.28,48.9240920.00,0.12,0.65,-10.31,-0.01,-0.08,-0.05,-33.21,-17.45,50.1140973.00,0.09,0.23,-10.09,0.40,-0.03,0.34,-33.21,-17.45,50.1141027.00,0.02,0.28,-10.21,0.13,-0.02,0.20,-34.26,-16.04,49.7741080.00,0.04,0.15,-10.17,0.02,-0.02,-0.01,-34.26,-16.04,49.7741133.00,0.05,0.19,-10.22,-0.01,-0.02,-0.02,-32.86,-17.10,49.7741186.00,0.09,0.20,-10.21,0.01,0.00,0.01,-32.86,-17.10,49.7741240.00,0.06,0.13,-10.16,-0.02,0.01,0.00,-32.86,-17.10,49.7741482.00,0.08,0.47,-10.23,-0.03,-0.00,-0.05,-32.51,-17.81,48.4141535.00,0.08,0.43,-10.25,0.06,-0.00,0.05,-34.09,-17.98,47.9041589.00,0.09,0.45,-10.23,0.03,-0.01,0.04,-34.09,-17.98,47.9041642.00,0.06,0.38,-10.21,0.05,-0.00,0.02,-33.56,-18.51,48.7541695.00,0.07,0.41,-10.19,0.01,-0.00,0.03,-33.56,-18.51,48.7541749.00,0.10,0.32,-10.22,0.04,0.01,0.01,-32.86,-17.10,48.7541802.00,0.09,0.32,-10.21,0.04,0.00,0.02,-32.86,-17.10,48.7541855.00,0.09,0.32,-10.19,0.01,-0.00,0.02,-32.86,-17.10,48.7541909.00,0.09,0.33,-10.21,-0.03,-0.01,-0.00,-33.03,-17.98,47.9041962.00,0.08,0.36,-10.21,-0.02,-0.01,0.02,-33.03,-17.98,47.9042015.00,0.06,0.39,-10.23,-0.04,-0.00,0.01,-33.03,-16.92,48.9242069.00,0.07,0.32,-10.17,0.01,0.00,-0.00,-33.03,-16.92,48.9242122.00,0.09,0.34,-10.18,-0.02,-0.00,-0.01,-33.03,-16.92,48.9242176.00,0.07,0.37,-10.20,0.01,-0.00,0.02,-32.51,-18.16,48.7542229.00,0.55,0.27,-10.25,0.05,-0.04,-0.07,-32.51,-18.16,48.7542282.00,-0.15,0.26,-10.19,0.19,-0.06,0.17,-33.38,-16.92,48.5842336.00,0.04,0.21,-10.18,0.03,0.03,0.10,-33.38,-16.92,48.5842389.00,0.07,0.19,-10.23,-0.36,-0.02,-0.12,-33.03,-17.98,48.5842443.00,0.18,0.54,-10.23,-0.35,-0.03,-0.14,-33.03,-17.98,48.5842687.00,0.10,0.43,-10.22,-0.21,-0.02,-0.11,-32.86,-17.45,48.7542740.00,0.05,0.44,-10.24,0.01,0.00,0.04,-32.86,-17.45,48.7542794.00,0.08,0.33,-10.19,0.09,0.01,0.03,-33.56,-18.16,49.0942847.00,0.06,0.34,-10.19,0.05,-0.00,0.03,-33.56,-18.16,49.0942901.00,0.09,0.29,-10.21,0.01,-0.00,-0.01,-33.21,-17.81,48.7542954.00,0.05,0.38,-10.22,-0.01,-0.00,0.01,-33.21,-17.81,48.7543008.00,0.06,0.34,-10.21,0.01,-0.00,-0.00,-33.56,-16.40,47.3943061.00,0.06,0.37,-10.22,0.01,0.00,-0.00,-33.56,-16.40,47.3943115.00,0.07,0.33,-10.21,-0.00,-0.00,-0.00,-33.56,-16.40,47.3943168.00,0.07,0.34,-10.22,0.01,-0.00,-0.00,-33.74,-17.63,47.9043222.00,0.06,0.33,-10.23,0.00,-0.00,-0.02,-33.74,-17.63,47.9043275.00,0.07,0.29,-10.23,0.02,0.01,-0.01,-32.86,-18.51,49.0943329.00,0.07,0.30,-10.22,0.01,0.01,-0.00,-32.86,-18.51,49.0943382.00,0.08,0.27,-10.20,0.01,0.00,0.01,-32.86,-18.51,49.0943436.00,0.09,0.28,-10.20,-0.01,0.00,0.01,-32.15,-18.51,48.0743489.00,0.08,0.32,-10.21,-0.00,0.01,0.02,-32.15,-18.51,48.0743543.00,0.08,0.31,-10.22,-0.01,-0.00,-0.00,-33.03,-18.33,48.5843596.00,0.08,0.32,-10.20,-0.00,0.00,-0.00,-33.03,-18.33,48.5843650.00,0.32,0.31,-10.28,-0.05,-0.05,-0.11,-34.97,-17.10,50.4543874.00,-0.17,0.49,-10.20,-0.00,-0.03,-0.01,-31.80,-17.81,50.7943928.00,-0.19,0.33,-10.14,0.05,0.01,0.12,-33.03,-17.63,50.2843982.00,0.09,0.42,-10.19,-0.13,-0.01,-0.08,-33.03,-17.63,50.2844036.00,0.10,0.55,-10.24,-0.17,-0.05,-0.05,-32.51,-18.16,50.1144089.00,-0.02,0.52,-10.20,-0.02,-0.04,-0.05,-32.51,-18.16,50.1144143.00,0.02,0.51,-10.17,0.14,0.02,0.06,-32.68,-17.63,49.9444197.00,0.04,0.40,-10.18,0.08,0.01,0.00,-32.68,-17.63,49.9444250.00,0.01,0.44,-10.21,0.02,-0.00,0.01,-32.68,-17.63,49.9444304.00,0.05,0.40,-10.19,0.06,0.02,0.02,-33.74,-17.98,48.9244357.00,0.00,0.26,-10.16,0.14,-0.02,0.08,-33.74,-17.98,48.9244411.00,0.01,0.33,-10.24,0.07,0.02,0.08,-33.21,-17.81,50.1144465.00,-0.03,0.26,-10.14,-0.06,0.01,-0.01,-33.21,-17.81,50.1144518.00,0.29,0.37,-10.22,-0.24,-0.01,-0.08,-34.09,-18.33,48.9244572.00,0.01,0.55,-10.25,-0.08,-0.03,-0.04,-34.09,-18.33,48.9244626.00,0.00,0.54,-10.22,0.16,0.01,0.11,-34.09,-18.33,48.9244679.00,0.04,0.41,-10.20,0.02,0.00,-0.00,-33.56,-19.22,48.4144733.00,0.03,0.38,-10.22,-0.01,-0.01,-0.04,-33.56,-19.22,48.4144787.00,0.04,0.41,-10.22,0.02,0.00,-0.00,-33.03,-19.39,49.2644840.00,0.05,0.40,-10.21,-0.00,-0.01,-0.03,-33.03,-19.39,49.2645069.00,0.05,0.39,-10.21,-0.01,-0.00,0.00,-31.45,-17.45,48.0745122.00,0.08,0.36,-10.19,-0.01,0.00,-0.02,-31.45,-17.45,48.0745176.00,0.06,0.37,-10.21,-0.02,-0.00,0.00,-31.98,-19.04,48.9245230.00,0.07,0.38,-10.23,-0.01,-0.00,-0.03,-31.98,-19.04,48.9245283.00,0.09,0.39,-10.22,0.02,-0.01,-0.02,-33.38,-17.28,48.5845337.00,-0.25,0.35,-10.21,0.14,-0.00,0.12,-33.38,-17.28,48.5845391.00,0.00,0.30,-10.22,0.02,0.03,0.09,-33.03,-17.63,49.9445444.00,-0.15,0.34,-10.26,-0.23,-0.00,-0.08,-33.03,-17.63,49.9445498.00,0.05,0.57,-10.16,-0.38,-0.11,-0.19,-33.03,-17.63,49.9445553.00,-0.04,0.64,-10.33,0.15,-0.00,0.12,-33.21,-18.16,49.0945611.00,-0.14,0.50,-10.16,0.24,0.03,0.18,-33.21,-18.16,49.0945662.00,-0.03,0.42,-10.18,0.07,-0.03,-0.10,-32.68,-18.33,50.9645713.00,0.02,0.28,-10.16,-0.02,-0.02,-0.08,-32.68,-18.33,50.9645765.00,-0.08,0.29,-10.13,-0.05,0.03,0.01,-32.68,-18.33,50.9645816.00,0.09,0.42,-10.27,-0.10,-0.03,-0.13,-33.91,-17.45,48.4145867.00,-0.01,0.37,-10.22,-0.09,-0.06,-0.08,-33.91,-17.45,48.4145918.00,0.15,0.42,-10.24,0.05,-0.03,-0.04,-34.61,-19.92,49.7745970.00,-0.02,0.32,-10.17,0.19,0.05,0.13,-34.61,-19.92,49.7746143.00,0.19,0.46,-10.16,-0.22,0.01,0.02,-34.09,-16.92,51.6446195.00,-0.06,0.58,-10.23,-0.14,-0.03,-0.10,-32.33,-17.28,49.9446246.00,-0.04,0.63,-10.22,0.14,0.01,0.13,-32.33,-17.28,49.9446297.00,-0.01,0.52,-10.18,0.04,0.01,-0.00,-32.86,-19.57,50.1146349.00,0.01,0.50,-10.21,-0.02,0.00,-0.07,-32.86,-19.57,50.1146400.00,-0.01,0.52,-10.24,0.03,0.01,0.00,-33.74,-18.33,49.9446451.00,0.02,0.46,-10.21,0.05,0.02,-0.01,-33.74,-18.33,49.9446503.00,0.02,0.46,-10.20,0.03,0.01,-0.02,-33.74,-18.33,49.9446554.00,0.01,0.43,-10.22,0.02,0.00,-0.01,-32.51,-17.10,49.7746605.00,0.03,0.44,-10.20,0.01,-0.00,-0.03,-32.51,-17.10,49.7746656.00,0.02,0.46,-10.24,0.00,0.00,0.01,-33.21,-18.86,48.7546708.00,0.06,0.45,-10.20,0.01,0.00,-0.01,-33.21,-18.86,48.7546759.00,0.04,0.43,-10.22,0.02,-0.00,-0.02,-33.21,-18.86,48.7546810.00,0.25,0.29,-10.18,0.12,0.01,-0.00,-33.74,-19.39,49.2646862.00,0.10,0.27,-10.22,0.16,0.07,0.13,-33.74,-19.39,49.2646913.00,-0.10,0.28,-10.17,-0.10,-0.04,-0.03,-33.03,-17.28,49.2646965.00,0.05,0.36,-10.28,-0.22,-0.03,-0.06,-33.03,-17.28,49.2647016.00,0.70,0.57,-10.32,-0.16,-0.02,-0.13,-33.03,-17.28,49.2647067.00,-0.60,0.39,-10.25,0.32,0.01,0.21,-33.03,-17.98,49.6047287.00,0.06,0.25,-10.24,0.02,0.01,0.01,-33.91,-16.75,49.7747338.00,0.06,0.24,-10.21,-0.01,-0.02,-0.01,-33.91,-16.75,49.7747389.00,0.02,0.24,-10.18,-0.04,-0.02,-0.02,-33.91,-16.75,49.7747441.00,0.12,0.42,-10.12,-0.21,-0.03,-0.12,-33.56,-16.40,49.7747492.00,-0.01,0.51,-10.24,-0.28,-0.10,-0.20,-33.56,-16.40,49.7747544.00,-0.05,0.65,-10.21,-0.06,-0.04,-0.03,-32.86,-17.81,48.7547595.00,0.00,0.47,-10.21,0.12,0.04,0.05,-32.86,-17.81,48.7547646.00,-0.03,0.53,-10.19,0.01,0.00,0.01,-32.86,-17.81,48.7547698.00,0.01,0.46,-10.20,-0.04,-0.01,-0.08,-33.56,-18.51,49.7747749.00,0.01,0.51,-10.20,0.04,0.01,0.03,-33.56,-18.51,49.7747801.00,-0.00,0.48,-10.23,0.05,0.01,0.04,-32.86,-17.45,48.4147852.00,-0.00,0.45,-10.20,0.04,0.01,0.06,-32.86,-17.45,48.4147904.00,-0.01,0.45,-10.20,0.03,0.00,0.04,-32.33,-19.04,47.9047955.00,0.01,0.43,-10.19,0.03,0.00,0.02,-32.33,-19.04,47.9048006.00,0.01,0.42,-10.19,0.02,0.01,0.01,-32.33,-19.04,47.9048058.00,0.03,0.42,-10.20,-0.00,-0.00,-0.02,-32.33,-18.69,47.9048109.00,0.03,0.42,-10.23,0.03,0.01,-0.01,-32.33,-18.69,47.9048161.00,0.05,0.36,-10.25,0.01,0.01,-0.01,-32.86,-17.10,47.0548212.00,0.16,0.39,-10.18,-0.01,0.00,-0.05,-32.86,-17.10,47.0548434.00,0.64,0.62,-10.35,-0.10,-0.05,-0.19,-32.51,-18.51,47.7348486.00,-0.70,0.31,-10.08,0.41,0.02,0.30,-32.51,-18.51,47.7348537.00,-0.04,0.40,-10.19,0.02,0.04,0.06,-35.32,-18.16,49.4348588.00,-0.10,0.26,-10.22,-0.14,0.01,-0.13,-35.32,-18.16,49.4348640.00,0.08,0.36,-10.18,-0.23,-0.08,-0.16,-35.32,-18.16,49.4348691.00,-0.03,0.46,-10.23,-0.01,-0.01,0.01,-32.68,-16.22,48.2448743.00,0.03,0.43,-10.19,0.08,0.03,0.02,-32.68,-16.22,48.2448794.00,0.42,0.27,-10.17,0.08,-0.02,-0.08,-33.21,-16.75,48.4148846.00,-0.10,0.29,-10.19,0.13,0.04,0.07,-33.21,-16.75,48.4148897.00,0.07,0.26,-10.13,-0.02,-0.01,0.03,-34.09,-16.92,48.2448949.00,0.07,0.43,-10.24,-0.15,-0.05,-0.04,-34.09,-16.92,48.2449000.00,-0.05,0.46,-10.19,-0.08,-0.02,-0.05,-34.09,-16.92,48.2449052.00,0.02,0.35,-10.20,0.02,0.01,0.02,-33.91,-19.22,48.0749103.00,0.03,0.36,-10.20,0.04,0.02,0.01,-33.91,-19.22,48.0749154.00,0.05,0.34,-10.24,0.00,-0.00,-0.01,-33.74,-17.98,47.9049206.00,0.02,0.37,-10.18,0.04,0.02,0.02,-33.74,-17.98,47.9049257.00,0.05,0.31,-10.18,0.03,0.03,0.03,-33.74,-17.98,47.9049309.00,0.06,0.33,-10.23,0.06,0.04,0.07,-33.38,-17.63,49.6049360.00,0.09,0.29,-10.19,0.04,-0.01,-0.03,-33.38,-17.63,49.6049577.00,0.40,0.29,-10.24,-0.19,0.07,-0.11,-33.74,-17.63,49.2649628.00,0.23,0.47,-10.30,-0.22,-0.07,-0.14,-33.74,-17.63,49.2649680.00,-0.11,0.29,-10.17,0.32,0.00,0.26,-33.21,-18.16,49.4349732.00,0.02,0.23,-10.19,0.17,0.04,0.20,-33.21,-18.16,49.4349783.00,0.07,0.18,-10.22,-0.04,-0.02,-0.01,-33.21,-18.51,50.1149835.00,0.01,0.16,-10.15,-0.02,0.00,-0.03,-33.21,-18.51,50.1149887.00,-0.05,0.22,-10.18,-0.04,0.03,0.01,-33.21,-18.51,50.1149938.00,0.17,0.27,-10.21,-0.14,0.00,-0.11,-33.56,-18.16,50.1149990.00,0.04,0.31,-10.22,-0.09,-0.04,-0.05,-33.56,-18.16,50.1150042.00,0.03,0.32,-10.23,0.05,0.02,0.04,-31.63,-17.63,48.5850093.00,0.05,0.30,-10.21,0.04,0.01,0.00,-31.63,-17.63,48.5850145.00,0.02,0.31,-10.24,-0.01,-0.02,-0.01,-31.63,-17.63,48.5850197.00,0.03,0.26,-10.20,0.00,0.00,-0.01,-33.38,-17.98,48.2450249.00,0.05,0.29,-10.19,0.01,0.01,0.01,-33.38,-17.98,48.2450300.00,0.04,0.28,-10.22,0.01,-0.01,-0.01,-32.33,-16.22,48.5850352.00,0.02,0.24,-10.20,0.02,-0.00,-0.01,-32.33,-16.22,48.5850404.00,0.04,0.26,-10.20,0.02,0.01,-0.01,-32.33,-16.22,48.5850456.00,0.04,0.24,-10.21,0.02,0.02,-0.04,-32.68,-18.69,48.2450507.00,0.08,0.23,-10.25,0.03,0.02,-0.01,-32.68,-18.69,48.2450688.00,0.07,0.23,-10.22,-0.02,-0.01,0.01,-31.80,-18.16,46.0350740.00,0.05,0.23,-10.20,-0.02,-0.03,0.03,-31.80,-18.16,46.0350791.00,0.05,0.24,-10.22,-0.03,-0.01,0.03,-33.03,-16.92,47.5650843.00,0.03,0.29,-10.20,-0.04,-0.03,0.07,-33.03,-16.92,47.5650895.00,0.11,0.15,-10.21,-0.08,-0.05,0.04,-33.03,-16.92,47.5650946.00,0.11,0.45,-10.28,-0.20,0.01,0.01,-33.56,-18.16,47.3950998.00,0.01,0.47,-10.22,0.01,0.02,-0.16,-33.56,-18.16,47.3951050.00,0.12,0.37,-10.24,0.07,0.06,-0.29,-33.91,-18.86,47.7351102.00,0.11,0.26,-10.22,0.08,0.05,-0.04,-33.91,-18.86,47.7351153.00,0.03,0.21,-10.20,0.02,0.01,-0.22,-33.91,-18.86,47.7351205.00,0.25,0.42,-10.22,-0.01,-0.01,-0.61,-33.38,-16.92,46.2051257.00,0.01,0.56,-9.99,0.17,-0.08,-1.32,-33.38,-16.92,46.2051308.00,0.31,0.97,-10.50,-0.29,0.02,-1.87,-34.09,-14.81,46.8851360.00,-0.12,0.05,-10.12,0.15,0.05,-1.86,-34.09,-14.81,46.8851412.00,-0.42,-0.18,-10.25,-0.01,0.04,-1.04,-34.09,-14.81,46.8851464.00,0.12,0.16,-10.19,0.03,0.04,0.06,-32.86,-12.87,44.6751515.00,0.12,-0.70,-9.92,0.00,0.06,0.82,-32.86,-12.87,44.6751567.00,0.20,0.12,-10.19,0.00,-0.03,1.95,-33.91,-15.69,44.3351619.00,-0.03,0.77,-10.16,0.00,-0.03,1.21,-33.91,-15.69,44.3351846.00,0.20,0.14,-10.22,0.00,0.01,0.20,-34.09,-15.87,44.1651898.00,-0.50,0.21,-10.18,0.04,-0.02,0.25,-34.09,-15.87,44.1651950.00,0.54,0.42,-10.20,0.01,0.00,-0.01,-32.86,-14.63,46.0352002.00,0.18,0.18,-10.25,0.00,-0.05,0.07,-32.86,-14.63,46.0352053.00,0.00,0.17,-10.16,-0.00,-0.05,0.08,-34.09,-16.57,45.5252105.00,-0.00,0.15,-10.20,-0.01,-0.00,-0.01,-34.09,-16.57,45.5252157.00,-0.02,0.28,-10.22,0.03,-0.00,-0.03,-32.15,-15.69,46.0352209.00,0.27,0.19,-10.21,0.01,0.00,-0.12,-32.15,-15.69,46.0352261.00,-0.05,0.31,-10.21,0.05,-0.02,0.04,-32.15,-15.69,46.0352313.00,0.09,0.11,-10.18,0.05,-0.02,-0.11,-32.51,-15.34,46.3752364.00,0.04,0.18,-10.16,0.02,-0.04,-0.03,-32.51,-15.34,46.3752416.00,0.06,0.19,-10.23,0.05,0.01,-0.06,-32.51,-15.34,46.3752468.00,0.08,0.11,-10.19,-0.04,-0.03,0.01,-34.09,-16.57,47.5652520.00,0.06,0.18,-10.21,0.04,0.01,0.05,-34.09,-16.57,47.5652571.00,0.04,0.18,-10.20,0.02,0.00,-0.09,-34.97,-15.34,46.7152623.00,0.15,0.17,-10.23,0.04,-0.00,-0.10,-34.97,-15.34,46.7152675.00,0.08,0.08,-10.19,-0.01,-0.00,0.12,-33.91,-14.99,47.0552727.00,-0.03,0.16,-10.19,-0.02,0.01,0.19,-33.91,-14.99,47.0552779.00,0.03,0.13,-10.16,0.03,-0.06,0.03,-33.91,-14.99,47.0553009.00,0.09,0.11,-10.17,0.01,0.02,0.01,-33.38,-14.81,45.5253061.00,0.12,0.23,-10.27,-0.05,0.02,0.02,-32.86,-15.34,46.3753113.00,0.11,0.16,-10.23,-0.03,-0.01,0.03,-32.86,-15.34,46.3753164.00,0.01,0.18,-10.16,-0.00,-0.09,0.13,-32.15,-15.34,49.0953216.00,0.01,0.11,-10.22,0.03,-0.01,0.27,-32.15,-15.34,49.0953268.00,0.03,0.22,-10.23,-0.00,0.03,-0.03,-32.15,-15.34,49.0953320.00,-0.01,0.23,-10.23,-0.03,0.03,-0.14,-34.26,-15.69,48.4153372.00,0.15,0.23,-10.21,-0.01,-0.03,-0.16,-34.26,-15.69,48.4153424.00,0.09,0.23,-10.25,0.02,0.00,-0.07,-33.38,-13.75,47.2253476.00,0.18,0.16,-10.21,-0.01,-0.02,-0.00,-33.38,-13.75,47.2253527.00,-0.01,0.32,-10.25,0.01,-0.02,0.14,-33.38,-13.75,47.2253580.00,0.05,0.28,-10.24,-0.01,-0.02,0.02,-32.33,-15.87,48.5853631.00,0.08,0.30,-10.28,-0.01,-0.02,-0.12,-32.33,-15.87,48.5853683.00,-0.05,0.22,-10.24,0.01,0.01,0.11,-34.79,-13.75,48.5853735.00,-0.05,0.31,-10.25,0.06,0.08,0.11,-34.79,-13.75,48.5853787.00,0.08,0.20,-10.24,-0.01,-0.02,-0.11,-34.79,-13.75,48.5853839.00,0.00,0.24,-10.22,-0.03,0.01,-0.06,-33.91,-15.34,48.4153891.00,-0.03,0.18,-10.22,0.01,0.02,-0.17,-33.91,-15.34,48.4153943.00,0.13,0.19,-10.21,-0.01,-0.01,-0.11,-32.15,-14.99,47.3954175.00,0.10,0.17,-10.22,0.00,-0.00,0.07,-33.38,-15.16,45.8654227.00,0.04,0.25,-10.24,0.01,-0.01,0.04,-33.03,-15.16,45.5254279.00,0.09,0.22,-10.21,-0.00,-0.01,-0.01,-33.03,-15.16,45.5254331.00,0.05,0.16,-10.21,0.00,-0.01,-0.01,-32.51,-15.69,46.0354383.00,0.07,0.19,-10.20,0.00,-0.00,-0.01,-32.51,-15.69,46.0354435.00,0.06,0.15,-10.21,-0.02,-0.02,-0.00,-34.61,-15.34,47.7354487.00,0.06,0.21,-10.22,0.00,-0.01,0.01,-34.61,-15.34,47.7354539.00,0.13,0.16,-10.26,-0.01,-0.02,0.03,-33.56,-16.40,48.0754592.00,0.03,0.18,-10.19,0.00,0.01,0.10,-33.56,-16.40,48.0754644.00,0.06,0.21,-10.22,-0.01,0.02,0.00,-33.56,-16.40,48.0754696.00,-0.01,0.23,-10.21,-0.02,0.01,-0.08,-33.56,-16.04,47.3954748.00,0.17,0.19,-10.23,-0.02,0.00,-0.09,-33.56,-16.04,47.3954800.00,0.08,0.20,-10.23,-0.01,-0.04,-0.04,-33.74,-14.46,45.8654852.00,0.09,0.24,-10.23,-0.01,-0.01,-0.03,-33.74,-14.46,45.8654904.00,0.10,-0.01,-10.09,0.01,-0.10,0.02,-33.74,-14.46,45.8654956.00,-0.05,0.28,-10.21,0.00,0.02,0.28,-33.74,-15.16,47.2255008.00,0.03,0.18,-10.18,0.04,-0.01,-0.01,-33.74,-15.16,47.2255060.00,0.00,0.24,-10.24,-0.02,0.03,-0.15,-34.09,-15.51,47.2255112.00,0.17,0.16,-10.23,-0.01,-0.01,-0.16,-34.09,-15.51,47.2255335.00,0.09,0.20,-10.24,0.00,0.00,0.01,-34.26,-16.40,45.0155387.00,0.07,0.20,-10.21,0.02,0.01,0.02,-34.26,-16.40,45.0155439.00,0.09,0.22,-10.23,0.02,0.01,0.01,-34.26,-14.63,45.6955491.00,0.09,0.17,-10.20,0.02,0.00,-0.03,-34.26,-14.63,45.6955543.00,0.10,0.16,-10.23,0.02,0.00,-0.01,-33.56,-14.28,44.3355596.00,0.07,0.17,-10.21,0.02,0.01,0.01,-33.56,-14.28,44.3355648.00,0.12,0.18,-10.22,0.02,0.00,-0.01,-33.56,-14.28,44.3355700.00,0.10,0.14,-10.22,-0.00,-0.01,0.02,-33.56,-14.99,45.3555752.00,0.11,0.15,-10.21,0.00,-0.01,0.03,-33.56,-14.99,45.3555804.00,0.10,0.17,-10.25,-0.01,-0.00,0.06,-33.56,-16.04,45.6955856.00,0.08,0.17,-10.23,-0.00,-0.01,0.03,-33.56,-16.04,45.6955908.00,0.08,0.15,-10.22,0.01,-0.00,0.01,-33.56,-16.04,45.6955960.00,0.08,0.12,-10.25,0.00,0.00,-0.01,-33.21,-13.57,45.3556012.00,0.09,0.12,-10.20,-0.01,-0.01,-0.03,-33.21,-13.57,45.3556064.00,0.13,0.18,-10.23,-0.02,-0.01,-0.03,-32.33,-14.46,44.8456117.00,0.06,0.10,-10.20,-0.01,-0.00,-0.00,-32.33,-14.46,44.8456169.00,0.10,0.19,-10.22,-0.01,0.00,0.01,-32.33,-14.46,44.8456221.00,0.06,0.14,-10.20,-0.01,-0.01,0.00,-33.03,-15.87,46.2056273.00,0.05,0.21,-10.22,-0.02,0.00,0.01,-33.03,-15.87,46.2056492.00,-0.07,0.30,-10.23,-0.03,0.02,0.27,-33.21,-14.63,46.3756544.00,-0.00,0.23,-10.18,-0.05,0.01,-0.19,-33.21,-14.63,46.3756596.00,-0.05,0.27,-10.25,-0.05,0.02,-0.20,-32.51,-15.69,47.0556649.00,0.21,0.13,-10.20,-0.05,-0.02,-0.23,-32.51,-15.69,47.0556701.00,0.22,0.37,-10.38,-0.01,-0.06,-0.03,-33.74,-15.51,46.5456753.00,-0.01,0.22,-10.22,0.06,0.01,0.31,-33.74,-15.51,46.54