time,ax,ay,az,gx,gy,gz,mx,my,mz49.00,-0.64,1.98,-10.03,0.00,-0.01,-0.01,-29.17,-31.38,44.50100.00,-0.61,1.99,-10.02,0.00,-0.01,-0.01,-29.17,-31.38,44.50150.00,-0.62,2.00,-10.03,0.00,-0.01,-0.01,-30.22,-31.38,45.18200.00,-0.62,1.99,-10.00,0.00,-0.01,-0.01,-30.22,-31.38,45.18250.00,-0.63,2.00,-10.02,-0.00,-0.01,-0.01,-30.22,-31.38,45.18301.00,-0.62,1.98,-10.04,-0.00,-0.01,-0.01,-29.52,-32.44,43.82351.00,-0.61,1.98,-10.02,-0.00,-0.01,-0.01,-29.52,-32.44,43.82401.00,-0.62,2.01,-10.03,0.00,-0.01,-0.01,-29.34,-31.91,45.35452.00,-0.62,1.98,-10.00,-0.00,-0.01,-0.01,-29.34,-31.91,45.35502.00,-0.63,1.99,-10.02,0.00,-0.01,-0.01,-29.34,-31.91,45.35552.00,-0.62,1.99,-10.00,-0.00,-0.01,-0.01,-28.64,-30.85,43.99602.00,-0.63,1.99,-10.00,0.00,-0.01,-0.01,-28.64,-30.85,43.99653.00,-2.13,3.57,-10.67,1.93,0.23,-0.91,-30.05,-30.50,46.03703.00,-0.02,-0.66,-9.61,4.35,0.98,-0.62,-30.05,-30.50,46.03754.00,2.46,-6.88,-12.23,2.89,1.78,0.80,-30.05,-30.50,46.03804.00,-0.59,-0.31,-15.28,1.46,-1.02,1.06,-23.37,-0.18,47.39854.00,0.60,-5.94,-6.85,4.32,-2.73,-1.32,-23.37,-0.18,47.39904.00,-1.59,-11.40,-4.37,3.35,-2.45,0.08,-33.03,15.16,37.37955.00,-2.18,-4.68,-6.34,1.11,-1.68,1.52,-33.03,15.16,37.371005.00,-2.96,-5.16,-5.05,1.98,-2.01,0.25,-33.03,15.16,37.371055.00,-3.55,-8.89,-1.84,2.26,-2.00,0.14,-42.70,20.63,27.351106.00,-2.40,-8.24,-0.73,1.71,-1.51,0.70,-42.70,20.63,27.351156.00,-4.80,-9.71,-0.05,1.19,-0.92,0.51,-48.14,23.27,14.271207.00,-5.99,-6.56,-3.92,-4.38,-0.72,0.35,-48.14,23.27,14.271257.00,-4.32,-8.68,-1.59,-1.64,-0.88,0.27,-48.14,23.27,14.271307.00,-5.22,-6.01,-5.22,-2.92,-1.00,0.10,-51.66,15.16,20.721358.00,-5.60,-4.57,-3.71,-2.25,-1.06,-0.33,-51.66,15.16,20.721408.00,-5.53,-5.07,-3.82,-1.52,-0.01,-1.81,-53.24,10.75,26.671459.00,-2.13,-10.97,-6.81,-1.07,1.21,-1.03,-53.24,10.75,26.671509.00,-3.72,-3.17,-8.10,1.58,-0.53,-0.35,-53.24,10.75,26.671560.00,-3.27,-7.53,-6.33,2.58,-1.24,-1.05,-49.02,12.52,27.351610.00,-4.28,-7.30,-3.02,2.98,-1.89,-0.65,-49.02,12.52,27.351661.00,-3.80,-8.21,-0.33,3.15,-2.08,-0.88,-49.02,23.45,9.681711.00,-2.95,-12.09,3.01,1.93,-1.20,-0.58,-49.02,23.45,9.681762.00,-3.07,-10.21,0.44,0.47,-0.68,0.35,-49.02,23.45,9.681812.00,-4.21,-8.63,-0.65,1.06,-0.97,0.46,-47.97,25.56,-2.891862.00,-3.70,-8.38,1.45,2.56,-1.54,0.59,-47.97,25.56,-2.891913.00,-4.46,-7.13,5.38,1.61,-1.17,0.83,-48.50,19.75,-14.271963.00,-4.96,-6.05,5.74,0.91,0.04,0.66,-48.50,19.75,-14.272013.00,-3.39,-4.58,1.20,-0.66,0.54,-0.11,-48.50,19.75,-14.272064.00,-3.71,-7.63,1.78,-0.24,-0.10,-0.36,-50.08,17.10,-14.442114.00,-4.77,-9.90,3.35,-0.01,-0.04,0.55,-50.08,17.10,-14.442165.00,-5.88,-8.41,2.53,-0.30,0.31,0.88,-51.13,15.34,-16.142215.00,-6.73,-8.79,3.13,-0.19,-0.10,0.17,-51.13,15.34,-16.142265.00,-6.32,-9.20,3.70,-0.40,-0.05,0.13,-51.13,15.34,-16.142316.00,-5.08,-6.34,3.77,0.31,-0.39,0.31,-52.36,14.10,-14.612366.00,-4.75,-6.98,3.40,-0.46,-0.53,0.29,-52.36,14.10,-14.612417.00,-6.47,-7.50,3.81,-0.67,-0.20,0.84,-52.54,11.81,-15.462467.00,-5.69,-5.75,1.84,-0.81,-0.54,0.40,-52.54,11.81,-15.462518.00,-5.49,-8.74,4.18,0.21,-0.20,0.05,-52.54,11.81,-15.462568.00,-5.91,-7.96,3.71,0.26,-0.27,-0.08,-52.19,13.93,-16.482619.00,-6.58,-8.29,3.91,0.07,-0.21,0.45,-52.19,13.93,-16.482669.00,-5.00,-5.58,6.25,1.59,-0.82,0.67,-53.42,9.52,-18.002720.00,-5.06,-5.79,6.54,1.19,-0.30,0.26,-53.42,9.52,-18.002770.00,-5.08,-5.27,4.83,0.35,0.11,-0.06,-53.59,5.47,-20.892821.00,-4.56,-5.38,5.18,1.25,0.20,-0.07,-53.59,5.47,-20.892871.00,-5.01,-5.23,4.51,0.34,0.55,0.04,-53.59,5.47,-20.892922.00,-6.19,-3.91,3.65,0.72,0.40,0.24,-54.47,2.12,-20.382972.00,-5.44,-5.18,5.39,0.80,0.34,-0.09,-54.47,2.12,-20.383023.00,-7.12,-5.67,4.80,0.85,0.60,0.07,-54.47,2.12,-20.383073.00,-5.99,-4.76,5.39,2.97,-0.44,0.27,-56.58,-1.41,-19.023124.00,-7.04,-4.13,7.57,3.85,-0.26,0.86,-56.58,-1.41,-19.023174.00,-7.19,-0.73,7.60,0.18,0.60,0.85,-56.93,-14.46,-22.423225.00,-7.18,-1.32,5.26,-0.82,0.80,-0.05,-56.93,-14.46,-22.423275.00,-7.05,-3.77,5.82,-0.99,0.60,-0.18,-58.86,-12.87,-19.533326.00,-6.89,-3.07,4.74,-1.11,0.52,0.07,-58.86,-12.87,-19.533377.00,-6.62,-3.02,2.80,-1.49,0.49,-0.05,-58.86,-12.87,-19.533427.00,-7.24,-4.28,1.67,-1.31,0.02,0.06,-61.15,-11.28,-15.633478.00,-3.69,-6.14,8.13,-1.22,-0.23,0.14,-61.15,-11.28,-15.633528.00,-10.05,-6.36,3.80,1.08,1.42,1.12,-61.15,-11.28,-15.633579.00,-8.37,-1.95,7.38,0.57,-0.14,0.01,-61.67,-11.46,-13.763629.00,-7.04,-3.57,2.58,-0.02,0.11,0.16,-61.67,-11.46,-13.763680.00,-7.69,-4.65,4.00,0.51,-0.14,0.29,-62.90,-13.40,-13.253730.00,-10.23,-0.19,2.47,1.80,-0.02,1.10,-62.90,-13.40,-13.253781.00,-7.75,1.03,6.34,1.37,-0.79,0.38,-62.90,-13.40,-13.253831.00,-8.55,-2.35,3.73,0.18,0.07,-0.58,-61.15,-20.45,-12.913882.00,-8.78,-3.37,5.35,-0.24,-0.08,-0.66,-61.15,-20.45,-12.913933.00,-7.71,-3.89,5.74,-0.39,0.05,-0.08,-62.38,-18.51,-14.783983.00,-8.71,-1.80,5.29,0.10,0.38,0.50,-62.38,-18.51,-14.784034.00,-6.27,-0.77,3.94,-0.75,0.63,0.55,-63.08,-17.45,-12.744085.00,-7.59,3.17,1.53,0.12,0.58,-0.16,-63.08,-17.45,-12.744135.00,-10.15,-6.43,5.42,-0.12,0.97,-1.59,-63.08,-17.45,-12.744186.00,-7.46,-4.31,1.75,-0.14,0.41,-0.48,-64.84,-13.57,-8.664237.00,-8.95,-2.84,3.30,-0.33,-0.09,0.02,-64.84,-13.57,-8.664287.00,-7.65,-3.49,3.91,0.03,-0.46,0.21,-64.84,-13.57,-8.664338.00,-8.86,-2.74,3.67,0.31,-0.17,0.27,-64.66,-14.10,-10.194388.00,-8.21,-2.20,4.59,0.22,-0.24,0.23,-64.66,-14.10,-10.194439.00,-8.56,-2.39,3.60,0.07,0.05,0.19,-63.78,-17.10,-8.664489.00,-8.39,-2.04,4.78,-0.05,0.07,0.16,-63.78,-17.10,-8.664540.00,-8.07,-2.91,3.97,0.07,0.34,0.22,-64.31,-15.87,-7.474591.00,-9.79,-0.87,3.72,0.45,0.27,0.59,-64.31,-15.87,-7.474641.00,-8.89,-1.34,3.62,-0.20,0.12,0.05,-64.31,-15.87,-7.474692.00,-9.17,-2.04,2.33,-0.96,0.66,-0.29,-63.61,-19.75,-6.794742.00,-8.74,-2.31,2.59,-1.07,0.74,-0.18,-63.61,-19.75,-6.794793.00,-8.52,-3.88,2.19,0.75,-0.13,-0.02,-65.72,-18.69,-5.104843.00,-8.71,-1.03,3.42,0.92,-0.42,0.08,-65.72,-18.69,-5.104894.00,-8.81,-2.46,4.15,0.46,-0.12,-0.01,-65.72,-18.69,-5.104945.00,-8.99,-1.47,3.03,0.02,0.07,0.07,-64.84,-17.45,-5.944995.00,-9.14,-1.96,4.05,0.08,0.04,-0.01,-64.84,-17.45,-5.945046.00,-9.03,-2.42,1.11,-0.81,0.58,-0.66,-63.78,-18.51,-5.275097.00,-8.31,-3.54,0.46,-0.89,0.54,-0.57,-63.78,-18.51,-5.275147.00,-8.90,-2.50,2.71,0.03,-0.13,-0.03,-63.78,-18.51,-5.275198.00,-9.40,-2.84,2.68,0.19,-0.31,0.00,-65.36,-14.81,-4.425249.00,-8.12,-3.10,3.95,0.15,-0.32,-0.10,-65.36,-14.81,-4.425299.00,-8.18,-3.13,3.36,0.22,0.04,0.14,-64.66,-14.10,-4.085350.00,-9.32,-2.44,3.14,0.15,0.17,0.25,-64.66,-14.10,-4.085401.00,-9.57,-2.30,4.13,-0.30,0.19,0.02,-64.66,-14.10,-4.085451.00,-9.09,-2.93,2.51,-0.40,0.27,-0.16,-64.84,-16.04,-4.255502.00,-8.22,-3.99,1.79,-0.00,0.05,-0.06,-64.84,-16.04,-4.255553.00,-11.65,-1.69,2.03,0.96,-0.18,0.91,-65.36,-15.51,-4.085603.00,-7.69,1.05,1.84,0.11,-0.72,0.35,-65.36,-15.51,-4.085654.00,-8.38,-4.41,6.22,0.23,-0.00,-0.65,-65.36,-15.51,-4.085705.00,-10.06,-1.53,0.41,0.03,0.54,0.28,-65.36,-15.51,-4.085755.00,-9.27,-2.71,2.68,-0.12,-0.05,-0.06,-65.36,-15.51,-4.085806.00,-8.35,-2.42,3.72,-0.03,-0.22,0.01,-65.01,-17.28,-6.115857.00,-8.87,-2.44,3.09,0.02,0.05,0.04,-65.01,-17.28,-6.115907.00,-8.55,-2.71,3.67,-0.00,0.11,0.05,-65.01,-17.28,-6.115958.00,-9.11,-1.60,2.94,-0.05,0.04,0.05,-65.89,-18.51,-5.276010.00,-8.83,-2.19,2.72,-0.24,0.06,0.07,-65.89,-18.51,-5.276060.00,-9.27,-2.41,3.44,0.40,-0.31,0.32,-65.01,-18.33,-5.776111.00,-8.89,-1.43,3.60,0.82,-0.42,0.39,-65.01,-18.33,-5.776162.00,-9.07,-1.30,4.90,-0.13,0.02,-0.26,-65.01,-18.33,-5.776212.00,-10.07,-2.72,2.28,-0.99,0.82,-0.76,-65.89,-18.86,-7.306263.00,-8.67,-2.23,3.50,-0.40,0.37,-0.44,-65.89,-18.86,-7.306314.00,-11.70,-4.48,0.17,0.43,-0.20,0.21,-64.66,-15.87,-2.386364.00,-8.41,-0.15,4.94,0.71,-1.31,0.90,-64.66,-15.87,-2.386415.00,-6.45,0.44,2.67,0.09,0.14,0.50,-66.24,-19.57,-6.286466.00,-7.32,-0.88,3.84,-0.04,0.15,-0.72,-66.24,-19.57,-6.286516.00,-8.62,-3.18,2.68,-0.02,-0.25,0.03,-66.24,-19.57,-6.286567.00,-7.15,-2.23,4.96,-0.02,0.11,0.11,-64.49,-18.16,-6.286618.00,-8.16,-1.79,3.49,-0.11,-0.07,0.35,-64.49,-18.16,-6.286668.00,-8.91,-2.84,3.42,-0.02,0.12,0.12,-64.49,-18.16,-6.286719.00,-9.14,-1.64,3.39,0.31,-0.21,0.11,-67.30,-18.51,-5.276770.00,-8.70,-1.65,4.39,0.20,-0.10,-0.12,-67.30,-18.51,-5.276821.00,-9.27,-1.69,4.82,-0.36,0.36,-0.50,-65.01,-18.33,-5.446871.00,-8.53,-3.03,2.12,-0.81,0.76,-0.75,-65.01,-18.33,-5.446922.00,-9.02,-2.15,3.26,0.14,-0.15,-0.01,-64.49,-15.34,-3.576973.00,-8.72,-2.64,5.38,1.12,-1.08,0.62,-64.49,-15.34,-3.577023.00,-9.02,-1.79,3.44,-0.02,0.08,0.09,-64.49,-15.34,-3.577074.00,-8.80,-3.24,2.17,-0.42,0.31,-0.12,-65.54,-16.75,-4.257125.00,-10.26,-0.79,2.46,-0.32,-0.07,-0.25,-65.54,-16.75,-4.257176.00,-8.31,-3.98,3.53,-0.24,0.14,-0.32,-66.24,-14.99,-4.257227.00,-8.20,-3.48,3.09,-0.06,0.28,0.04,-66.24,-14.99,-4.257277.00,-9.61,-2.27,2.15,0.04,0.19,0.19,-66.24,-14.99,-4.257328.00,-8.82,-3.04,2.51,0.05,-0.04,0.08,-65.54,-16.40,-3.917379.00,-9.23,-2.44,3.10,0.35,-0.06,0.05,-65.54,-16.40,-3.917429.00,-9.48,-1.93,3.54,-0.08,0.18,-0.35,-66.07,-15.16,-3.747480.00,-8.62,-3.61,1.98,-0.36,0.06,-0.11,-66.07,-15.16,-3.747531.00,-8.73,-3.52,2.68,0.17,-0.34,0.30,-66.07,-15.16,-3.747582.00,-8.81,-2.75,2.82,0.08,0.00,0.06,-66.42,-15.51,-3.747633.00,-9.09,-1.53,3.91,-0.11,0.25,-0.13,-66.42,-15.51,-3.747683.00,-8.86,-2.77,1.03,-0.23,0.19,-0.20,-65.89,-14.99,-2.897734.00,-8.69,-2.23,3.09,-0.07,-0.34,0.14,-65.89,-14.99,-2.897785.00,-8.08,-3.99,4.29,-0.02,-0.29,-0.06,-65.89,-14.99,-2.897836.00,-9.55,-2.55,2.53,0.06,0.23,0.21,-65.36,-16.22,-4.087887.00,-8.95,-2.78,2.76,-0.09,0.09,-0.01,-65.36,-16.22,-4.087937.00,-9.14,-1.06,3.68,-0.03,0.07,-0.14,-66.24,-14.99,-3.237988.00,-8.71,-4.18,1.66,-0.15,-0.01,-0.41,-66.24,-14.99,-3.238039.00,-7.73,-3.83,2.67,0.15,-0.47,0.36,-66.24,-14.99,-3.238090.00,-9.14,-2.05,4.04,-0.05,-0.13,0.42,-64.84,-14.99,-3.578140.00,-8.94,-2.12,1.71,-0.06,0.03,-0.04,-64.84,-14.99,-3.578191.00,-9.58,-2.76,2.14,0.17,-0.35,-0.05,-64.84,-14.99,-4.938242.00,-7.59,-3.44,3.66,0.12,-0.30,0.13,-64.84,-14.99,-4.938293.00,-10.10,-1.73,3.49,0.13,0.16,0.37,-64.84,-14.99,-4.938344.00,-8.83,-2.10,4.88,-0.21,0.36,-0.18,-65.54,-16.40,-4.938394.00,-9.46,-3.63,1.59,-0.51,0.80,-0.65,-65.54,-16.40,-4.938445.00,-8.82,-2.82,2.32,-0.30,0.36,-0.43,-65.72,-13.40,-3.068496.00,-9.32,-3.47,1.19,0.24,-0.45,0.09,-65.72,-13.40,-3.068547.00,-7.97,-3.82,4.39,0.23,-0.55,0.21,-65.72,-13.40,-3.068598.00,-8.81,-3.60,1.56,-0.26,0.37,0.39,-66.59,-14.63,-3.918648.00,-9.42,-3.25,1.30,-0.04,0.26,0.52,-66.59,-14.63,-3.918699.00,-9.38,-3.53,2.16,0.26,-0.55,0.08,-65.72,-16.92,-3.068750.00,-8.14,-1.28,2.44,0.68,-0.50,0.48,-65.72,-16.92,-3.068801.00,-6.94,-0.53,3.61,0.30,-0.16,-0.26,-67.65,-19.57,-4.258852.00,-8.71,-4.36,4.20,0.35,-0.04,-1.07,-67.65,-19.57,-4.258903.00,-6.33,-1.88,2.70,0.39,-0.35,0.00,-67.65,-19.57,-4.258953.00,-10.53,-1.83,2.55,0.31,0.16,0.50,-65.36,-16.22,-4.429004.00,-9.39,-2.06,4.15,0.16,-0.03,0.29,-65.36,-16.22,-4.429055.00,-9.52,-1.08,4.23,-0.36,0.28,-0.27,-66.59,-18.51,-5.279106.00,-8.90,-2.24,2.44,-0.97,0.90,-0.96,-66.59,-18.51,-5.279157.00,-8.70,-3.63,1.57,0.01,-0.11,-0.23,-66.59,-18.51,-5.279208.00,-8.63,-3.41,2.95,0.45,-0.69,0.21,-65.19,-13.93,-2.559259.00,-11.03,-1.89,3.97,0.09,0.13,0.41,-65.19,-13.93,-2.559310.00,-9.43,-1.63,2.65,-0.40,0.25,0.07,-64.13,-16.40,-4.599361.00,-8.93,-2.64,2.97,-0.00,-0.03,-0.08,-64.13,-16.40,-4.599411.00,-8.84,-2.84,3.10,-0.05,-0.24,-0.63,-64.13,-16.40,-4.599462.00,-7.65,-4.45,3.98,0.01,0.17,-0.19,-65.54,-14.63,-4.599513.00,-8.41,-3.47,3.55,0.24,0.51,0.30,-65.54,-14.63,-4.599564.00,-9.13,-2.35,0.90,-0.20,0.05,0.14,-66.59,-14.63,-2.899615.00,-8.99,-2.95,3.00,-0.03,-0.08,0.08,-66.59,-14.63,-2.899666.00,-8.79,-2.80,3.16,-0.10,0.25,-0.24,-66.59,-14.63,-2.899717.00,-10.08,-3.11,1.60,0.03,-0.18,-0.18,-65.54,-14.99,-0.859768.00,-8.49,-3.17,2.78,-0.19,-0.32,-0.04,-65.54,-14.99,-0.859818.00,-8.23,-3.46,3.18,-0.04,0.24,0.12,-66.24,-14.99,-4.599869.00,-9.31,-2.83,1.46,-0.05,0.23,0.05,-66.24,-14.99,-4.599920.00,-8.93,-3.14,2.48,-0.15,0.10,-0.02,-66.24,-14.63,-2.219971.00,-8.79,-2.92,2.09,-0.12,-0.01,0.06,-66.24,-14.63,-2.2110022.00,-8.84,-3.22,2.65,0.12,-0.16,0.04,-66.24,-14.63,-2.2110073.00,-9.11,-2.61,2.90,0.19,-0.11,0.00,-65.54,-16.04,-1.8710124.00,-9.25,-1.84,3.91,-0.01,0.18,-0.18,-65.54,-16.04,-1.8710175.00,-9.20,-2.35,2.19,-0.30,0.33,-0.27,-65.54,-16.04,-1.8710226.00,-9.15,-3.03,0.89,-0.01,-0.22,0.03,-66.59,-13.22,-2.8910277.00,-8.14,-3.69,2.04,0.13,-0.72,0.02,-66.59,-13.22,-2.8910328.00,-7.68,-3.38,4.03,0.43,-0.53,0.49,-65.89,-13.93,-4.9310379.00,-10.32,-0.75,3.11,0.27,0.27,0.55,-65.89,-13.93,-4.9310430.00,-9.20,-1.22,3.17,-0.25,0.17,-0.27,-65.89,-13.93,-4.9310481.00,-9.66,-3.11,1.27,-0.55,0.35,-0.48,-65.72,-18.33,-3.4010531.00,-8.06,-3.05,2.78,-0.35,0.07,-0.41,-65.72,-18.33,-3.4010582.00,-8.20,-3.50,3.38,-0.09,0.13,0.11,-66.42,-13.75,-3.4010633.00,-9.97,-2.43,1.41,-0.08,0.25,0.25,-66.42,-13.75,-3.4010684.00,-8.83,-3.51,2.53,0.10,-0.08,0.05,-66.59,-14.28,-2.5510735.00,-9.20,-2.48,2.20,0.15,0.04,-0.04,-66.59,-14.28,-2.5510786.00,-8.87,-2.80,3.40,-0.21,0.33,-0.24,-66.59,-14.28,-2.5510837.00,-9.01,-3.62,1.18,0.14,0.16,-0.08,-67.47,-12.69,-0.6810888.00,-8.99,-4.09,1.79,0.63,-0.54,0.02,-67.47,-12.69,-0.6810939.00,-9.21,-3.98,2.27,0.28,-0.65,0.32,-65.54,-15.34,-2.2110990.00,-9.06,-0.92,1.36,0.01,-0.24,0.92,-65.54,-15.34,-2.2111041.00,-6.32,0.51,3.33,0.30,-0.05,0.15,-65.54,-15.34,-2.2111092.00,-7.16,-4.02,3.27,0.42,-0.10,-0.86,-66.24,-16.75,-3.2311143.00,-9.66,-2.01,1.13,0.02,-0.02,-0.06,-66.24,-16.75,-3.2311194.00,-7.04,-2.69,4.71,0.02,-0.09,0.00,-66.95,-16.40,-5.6111245.00,-8.00,-2.22,3.32,0.04,-0.35,0.08,-66.95,-16.40,-5.6111296.00,-8.88,-3.03,3.07,0.10,-0.16,0.12,-66.95,-16.40,-5.6111347.00,-8.91,-1.87,4.54,0.23,-0.16,0.23,-64.31,-16.92,-7.8111398.00,-9.58,-2.09,2.75,-0.01,0.20,0.13,-64.31,-16.92,-7.8111449.00,-9.31,-1.48,4.64,-0.11,0.19,-0.07,-66.24,-18.51,-5.6111500.00,-8.84,-3.76,0.26,-0.68,0.77,-0.73,-66.24,-18.51,-5.6111551.00,-8.77,-2.64,2.75,-0.28,0.30,-0.35,-66.24,-18.51,-5.6111602.00,-9.05,-3.37,1.59,-0.10,-0.02,0.10,-66.24,-15.34,-2.2111653.00,-9.26,-2.30,3.77,-0.00,-0.21,0.26,-66.24,-15.34,-2.2111704.00,-8.23,-3.54,2.20,-0.20,0.47,-0.38,-66.07,-14.81,-2.7211755.00,-8.36,-3.25,1.76,0.24,0.19,-0.17,-66.07,-14.81,-2.7211807.00,-9.54,-1.85,3.83,0.58,-0.71,0.38,-66.59,-16.04,-2.2111858.00,-10.17,-1.41,3.29,-0.03,-0.21,0.05,-66.59,-16.04,-2.2111909.00,-8.57,-2.81,3.07,-0.43,-0.19,-0.32,-66.59,-16.04,-2.2111960.00,-7.73,-4.09,3.23,-0.33,0.25,-0.17,-66.59,-12.87,-4.5912011.00,-9.03,-3.46,2.63,0.02,0.43,0.23,-66.59,-12.87,-4.5912062.00,-9.18,-2.76,1.71,-0.31,0.19,-0.08,-66.24,-13.93,-1.5312114.00,-8.81,-3.25,1.82,-0.13,-0.03,0.05,-66.24,-13.93,-1.5312165.00,-8.72,-3.22,2.64,0.38,-0.33,0.16,-66.24,-13.93,-1.5312216.00,-8.95,-2.17,3.39,0.30,-0.06,-0.04,-67.12,-13.75,-4.0812267.00,-9.24,-2.66,2.33,-0.29,0.33,-0.29,-67.12,-13.75,-4.0812318.00,-9.00,-2.99,1.00,-0.42,0.16,-0.06,-67.12,-13.75,-1.7012369.00,-8.89,-3.51,3.01,-0.15,-0.29,0.04,-67.12,-13.75,-1.7012420.00,-9.60,-2.90,1.70,-0.07,0.18,0.20,-67.12,-13.75,-1.7012471.00,-9.14,-2.76,2.40,0.01,-0.03,0.05,-66.77,-13.05,-1.3612522.00,-8.94,-2.94,3.11,0.08,0.02,-0.20,-66.77,-13.05,-1.3612573.00,-9.23,-2.29,1.62,-0.18,0.19,-0.25,-66.07,-13.05,-0.6812624.00,-8.68,-3.81,1.49,-0.15,-0.08,0.12,-66.07,-13.05,-0.6812675.00,-8.98,-3.17,2.57,0.30,-0.33,0.29,-66.07,-13.05,-0.6812726.00,-9.13,-2.66,2.21,0.02,0.01,-0.01,-66.59,-13.93,-2.2112777.00,-9.11,-2.94,4.57,-0.30,0.23,-0.33,-66.59,-13.93,-2.2112829.00,-9.27,-3.20,2.10,-0.28,0.16,-0.09,-66.77,-12.34,-1.0212880.00,-8.27,-3.44,1.33,0.21,-0.30,0.30,-66.77,-12.34,-1.0212931.00,-8.94,-3.31,2.07,0.08,-0.08,0.03,-66.77,-12.34,-1.0212982.00,-8.90,-3.43,1.19,0.03,0.10,-0.13,-66.24,-12.52,-1.8713033.00,-8.89,-3.65,1.09,-0.42,0.52,-0.41,-66.24,-12.52,-1.8713084.00,-8.87,-3.56,0.80,-0.26,0.20,-0.04,-66.95,-11.81,0.8513135.00,-8.90,-3.67,1.23,0.04,-0.14,0.16,-66.95,-11.81,0.8513186.00,-8.96,-3.35,2.80,0.14,-0.22,0.12,-65.89,-13.93,-0.1713237.00,-8.96,-3.25,1.48,-0.00,0.00,-0.01,-65.89,-13.93,-0.1713289.00,-9.01,-3.40,2.10,-0.02,0.03,-0.07,-65.89,-13.93,-0.1713340.00,-9.15,-2.75,3.31,-0.10,0.14,-0.13,-66.42,-13.75,0.0013391.00,-9.23,-2.63,2.47,-0.10,0.20,-0.12,-66.42,-13.75,0.0013442.00,-8.91,-3.27,0.31,-0.12,0.21,-0.05,-66.77,-12.69,0.0013493.00,-11.61,-1.64,0.11,0.22,-0.28,-0.24,-66.77,-12.69,0.0013544.00,-7.62,-5.21,3.35,0.19,-0.76,-0.33,-66.77,-12.69,0.0013595.00,-7.84,-4.95,3.17,0.13,-0.35,0.19,-66.07,-10.23,-0.3413646.00,-8.78,-3.86,2.47,0.38,0.07,0.49,-66.07,-10.23,-0.3413697.00,-8.72,-4.14,2.74,0.43,-0.45,0.14,-65.72,-11.99,-2.0413749.00,-8.31,-2.35,3.30,0.48,-0.18,0.36,-65.72,-11.99,-2.0413800.00,-7.69,-3.18,2.00,0.53,-0.17,-0.11,-65.72,-11.99,-2.0413851.00,-8.63,-1.85,2.21,0.37,-0.33,0.04,-65.54,-14.99,-3.9113902.00,-8.27,-3.51,2.02,0.26,-0.29,-0.06,-65.54,-14.99,-3.9113953.00,-9.38,-1.19,4.49,0.42,-0.33,0.44,-64.84,-15.69,-5.2714004.00,-10.63,-4.64,1.29,0.21,0.36,0.36,-64.84,-15.69,-5.2714055.00,-8.53,-1.61,5.06,0.56,-0.66,0.15,-64.84,-15.69,-5.2714107.00,-7.25,-1.13,2.49,0.10,0.45,-0.02,-65.01,-15.51,-4.4214158.00,-13.42,-1.52,1.27,-0.17,0.78,0.28,-65.01,-15.51,-4.4214209.00,-7.01,-2.75,3.49,-0.41,0.13,-0.20,-65.19,-15.34,-2.5514260.00,-8.63,-2.62,1.85,0.17,-0.00,0.17,-65.19,-15.34,-2.5514311.00,-8.99,-2.42,3.63,0.23,-0.22,0.18,-65.19,-15.34,-2.5514363.00,-9.23,-2.18,2.90,0.03,0.07,0.01,-64.49,-17.45,-2.5514414.00,-9.73,-1.84,3.71,0.04,0.02,0.06,-64.49,-17.45,-2.5514465.00,-8.79,-1.13,0.37,-1.00,0.84,-0.33,-64.84,-17.45,-1.8714516.00,-8.20,-4.82,1.46,-0.07,-0.10,-0.38,-64.84,-17.45,-1.8714567.00,-9.09,-2.95,2.53,0.28,-0.24,-0.15,-65.72,-16.92,-2.0414618.00,-8.46,-3.15,3.08,0.31,-0.29,-0.02,-65.72,-16.92,-2.0414670.00,-9.06,-2.27,2.39,0.04,0.08,0.07,-65.72,-16.92,-2.0414721.00,-9.29,-2.00,4.14,-0.12,0.37,-0.31,-65.01,-15.51,-1.7014772.00,-8.24,-3.94,2.03,-0.24,0.62,-0.57,-65.01,-15.51,-1.7014823.00,-8.94,-3.17,1.88,0.67,-0.23,-0.06,-65.36,-13.40,1.3614874.00,-9.50,-3.76,-0.40,0.95,-0.98,0.52,-65.36,-13.40,1.3614926.00,-9.04,-0.90,2.84,-0.25,-0.38,0.22,-65.36,-13.40,1.3614977.00,-6.83,-0.79,2.74,-0.61,-0.09,0.13,-65.54,-16.40,-3.5715028.00,-8.05,-4.45,4.67,0.16,0.12,-0.86,-65.54,-16.40,-3.5715079.00,-9.47,-2.72,1.57,0.30,0.06,-0.05,-66.24,-14.63,-3.9115131.00,-10.22,-2.96,2.21,-0.01,0.47,0.05,-66.24,-14.63,-3.9115182.00,-8.65,-3.02,3.23,0.04,0.01,0.13,-66.24,-14.63,-3.9115233.00,-10.03,-1.69,2.93,0.03,0.13,0.14,-65.89,-13.57,-2.5515284.00,-9.10,-2.10,3.16,-0.18,0.08,-0.01,-65.89,-13.57,-2.5515335.00,-8.62,-3.25,2.57,-0.12,0.01,-0.02,-65.89,-14.63,-1.8715387.00,-8.49,-3.19,2.62,0.29,-0.19,0.12,-65.89,-14.63,-1.8715438.00,-9.12,-2.27,4.27,0.36,-0.12,0.02,-65.89,-14.63,-1.8715489.00,-9.22,-2.24,2.69,-0.27,0.23,-0.28,-65.54,-14.99,-2.5515540.00,-8.92,-3.18,2.57,-0.41,0.31,-0.26,-65.54,-14.99,-2.5515591.00,-11.13,-2.58,1.61,-0.03,-0.22,0.50,-66.77,-14.46,-1.0215643.00,-8.04,0.01,1.64,-0.20,-0.07,0.44,-66.77,-14.46,-1.0215694.00,-6.00,-2.44,4.56,-0.03,-0.18,-0.54,-66.77,-14.46,-1.0215745.00,-9.64,-3.32,2.34,0.24,0.11,-0.12,-67.12,-15.51,-3.4015796.00,-8.51,-2.99,3.80,0.10,0.17,-0.12,-67.12,-15.51,-3.4015848.00,-8.57,-2.90,3.42,-0.00,0.24,0.05,-66.07,-14.81,-3.0615899.00,-9.13,-2.48,3.11,-0.22,0.18,-0.06,-66.07,-14.81,-3.0615950.00,-8.62,-3.71,1.87,-0.26,-0.01,0.03,-65.54,-13.93,-1.1916001.00,-9.12,-2.79,3.40,0.04,-0.06,0.01,-65.54,-13.93,-1.1916053.00,-8.73,-2.94,2.99,-0.33,0.50,-0.41,-65.54,-13.93,-1.1916104.00,-8.94,-2.94,1.79,0.18,-0.02,0.04,-67.65,-13.57,0.5116155.00,-9.36,-2.17,2.79,0.29,-0.42,0.17,-67.65,-13.57,0.5116207.00,-9.17,-2.93,2.39,-0.15,-0.08,-0.15,-66.24,-14.28,-1.8716258.00,-8.52,-3.30,3.45,-0.17,-0.10,-0.12,-66.24,-14.28,-1.8716309.00,-8.41,-3.67,2.85,-0.06,0.17,0.11,-66.24,-14.28,-1.8716361.00,-9.00,-2.88,1.96,-0.02,0.19,0.12,-66.95,-13.93,-0.5116412.00,-9.17,-2.58,2.61,0.03,0.21,-0.10,-66.95,-13.93,-0.5116463.00,-8.97,-3.17,2.16,-0.17,0.20,-0.12,-66.42,-12.34,0.3416515.00,-8.77,-2.83,0.62,-0.20,0.04,0.08,-66.42,-12.34,0.3416566.00,-9.15,-2.94,2.05,0.19,-0.19,0.01,-66.07,-12.34,0.6816617.00,-8.57,-3.28,2.71,-0.04,-0.16,-0.16,-66.07,-12.34,0.6816668.00,-8.15,-4.24,3.12,-0.02,0.14,0.02,-66.07,-12.34,0.6816720.00,-9.04,-2.83,2.05,-0.07,0.30,0.06,-67.30,-13.57,0.8516771.00,-8.93,-2.82,1.49,0.08,0.05,-0.25,-67.30,-13.57,0.8516822.00,-8.83,-3.64,1.82,-0.12,-0.53,0.00,-66.07,-11.64,1.3616874.00,-7.99,-2.72,3.99,0.08,-0.36,0.56,-66.07,-11.64,1.3616925.00,-9.01,-2.00,0.45,-0.07,0.19,0.08,-66.07,-11.64,1.3616976.00,-9.63,-3.09,3.14,-0.04,-0.04,-0.29,-65.89,-13.93,1.5317028.00,-7.74,-3.80,3.01,-0.31,0.14,-0.17,-65.89,-13.93,1.5317079.00,-9.71,-3.71,2.51,-0.03,0.22,0.26,-65.89,-13.93,1.5317131.00,-9.08,-2.61,2.11,0.17,-0.11,0.02,-67.65,-12.52,1.1917182.00,-9.16,-2.94,2.26,0.08,0.05,-0.16,-67.65,-12.52,1.1917233.00,-8.51,-4.11,1.78,-0.13,0.38,-0.27,-66.24,-13.22,1.8717285.00,-8.74,-3.05,0.34,0.25,-0.14,-0.07,-66.24,-13.22,1.8717336.00,-12.32,-3.64,1.95,0.56,-0.67,0.40,-66.07,-12.34,0.6817388.00,-9.82,-1.35,1.38,-0.31,-0.15,0.62,-66.07,-12.34,0.6817439.00,-7.07,-1.83,3.20,-0.31,-0.33,0.22,-66.07,-12.34,0.6817490.00,-6.21,-3.90,4.50,0.24,-0.04,-0.58,-66.42,-14.10,-1.0217542.00,-15.11,-4.93,2.56,0.21,0.25,-0.05,-66.42,-14.10,-1.0217593.00,-6.92,-2.79,4.53,-0.02,-0.01,0.03,-65.89,-12.52,-3.9117645.00,-7.91,-2.57,2.19,0.06,-0.24,0.24,-65.89,-12.52,-3.9117696.00,-9.00,-3.08,3.13,0.20,-0.17,0.37,-65.89,-12.52,-3.9117747.00,-9.02,-2.72,2.52,-0.03,0.15,0.04,-67.30,-13.93,-2.2117799.00,-8.96,-2.08,4.74,-0.36,0.41,-0.49,-67.30,-13.93,-2.2117850.00,-8.99,-3.18,2.15,-0.09,0.17,-0.20,-65.72,-13.40,-0.6817902.00,-8.82,-3.90,1.48,-0.20,-0.05,0.02,-65.72,-13.40,-0.6817953.00,-9.07,-2.77,2.22,-0.13,0.02,0.09,-66.42,-14.81,0.0018004.00,-8.33,-4.14,1.18,-0.21,0.44,-0.36,-66.42,-14.81,0.0018056.00,-8.54,-3.99,1.57,0.22,0.18,-0.16,-66.42,-14.81,0.0018107.00,-9.32,-2.20,2.21,0.67,-0.78,0.30,-66.24,-12.16,1.1918159.00,-10.10,-2.22,4.18,0.02,-0.11,-0.04,-66.24,-12.16,1.1918210.00,-7.91,-3.66,3.65,-0.35,-0.31,-0.17,-66.24,-13.22,-0.1718262.00,-8.11,-4.00,3.57,-0.32,0.19,-0.18,-66.24,-13.22,-0.1718313.00,-8.84,-3.93,2.41,-0.05,0.49,0.30,-66.24,-13.22,-0.1718365.00,-9.03,-2.49,1.56,0.01,0.20,-0.05,-67.82,-12.69,0.0018416.00,-8.92,-3.41,0.08,-0.03,0.16,-0.34,-67.82,-12.69,0.0018468.00,-7.40,-4.74,2.49,-0.08,-0.66,0.00,-66.59,-13.22,0.8518519.00,-10.80,-3.04,5.44,0.18,-0.17,0.64,-66.59,-13.22,0.8518571.00,-9.06,-2.44,0.94,0.01,-0.02,-0.01,-66.59,-13.22,0.8518622.00,-9.86,-2.86,2.21,0.05,-0.03,-0.18,-66.59,-13.22,0.1718673.00,-8.20,-3.52,2.90,-0.16,-0.05,-0.38,-66.59,-13.22,0.1718725.00,-8.08,-4.11,2.73,0.03,0.21,0.14,-67.47,-12.69,1.3618776.00,-10.63,-2.54,1.19,-0.02,0.40,0.30,-67.47,-12.69,1.3618828.00,-9.36,-3.15,2.70,-0.03,0.04,-0.01,-67.12,-13.05,1.0218879.00,-9.00,-2.89,1.92,-0.07,0.03,0.07,-67.12,-13.05,1.0218931.00,-8.86,-3.43,1.74,0.11,-0.16,0.09,-67.12,-13.05,1.0218982.00,-9.01,-2.62,2.32,0.23,-0.21,0.08,-66.59,-12.87,1.1919034.00,-9.12,-2.78,2.42,0.03,0.13,-0.16,-66.59,-12.87,1.1919085.00,-9.22,-2.96,2.31,-0.32,0.36,-0.27,-66.07,-13.05,1.7019137.00,-9.14,-3.85,0.56,-0.14,0.08,-0.07,-66.07,-13.05,1.7019188.00,-8.14,-3.82,2.51,0.02,-0.33,-0.01,-66.07,-13.05,1.7019240.00,-8.42,-3.70,2.72,0.04,0.00,0.21,-68.53,-11.28,1.3619291.00,-8.99,-2.97,2.29,-0.04,0.09,-0.01,-68.53,-11.28,1.3619343.00,-8.99,-3.02,1.58,-0.13,0.27,-0.21,-66.42,-12.69,2.7219394.00,-9.31,-3.42,1.46,-0.14,0.05,-0.02,-66.42,-12.69,2.7219446.00,-9.04,-3.14,1.97,-0.07,-0.07,0.11,-66.42,-12.69,2.7219497.00,-8.92,-3.28,1.13,-0.05,0.17,-0.12,-67.30,-12.87,1.8719549.00,-10.07,-3.37,1.09,0.18,-0.12,-0.37,-67.30,-12.87,1.8719600.00,-8.69,-4.44,2.01,0.18,-0.64,-0.36,-67.82,-10.23,1.7019652.00,-7.54,-5.45,3.61,0.16,-0.26,0.42,-67.82,-10.23,1.7019703.00,-9.60,-2.86,2.67,0.64,-0.35,0.61,-67.82,-10.23,1.7019755.00,-8.44,-2.85,0.95,0.84,-0.08,0.33,-67.12,-12.34,-1.0219806.00,-8.55,-0.08,3.08,0.70,-0.23,0.03,-67.12,-12.34,-1.0219858.00,-10.02,-1.42,-0.00,0.15,0.37,-0.10,-65.89,-14.63,-0.5119909.00,-10.62,-3.20,2.55,0.10,-0.17,0.14,-65.89,-14.63,-0.5119961.00,-8.03,-1.94,3.60,0.27,-0.24,0.03,-65.89,-14.63,-0.5120012.00,-9.69,-2.58,2.58,0.19,-0.08,0.11,-67.47,-15.16,-1.7020064.00,-8.75,-2.33,3.36,0.10,-0.12,-0.04,-67.47,-15.16,-1.7020115.00,-8.91,-2.32,2.63,0.09,-0.01,0.01,-66.42,-15.51,-3.0620167.00,-8.52,-2.95,2.98,0.07,-0.05,0.02,-66.42,-15.51,-3.0620218.00,-8.99,-2.37,3.28,0.16,-0.03,0.15,-67.30,-17.10,-1.5320270.00,-9.03,-2.65,3.11,-0.03,0.01,-0.06,-67.30,-17.10,-1.5320321.00,-9.10,-2.54,3.40,-0.05,0.05,0.02,-67.30,-17.10,-1.5320373.00,-9.38,-1.34,2.50,-0.46,0.78,0.03,-67.82,-16.22,-1.7020425.00,-8.23,-3.62,0.34,-0.56,0.59,-0.42,-67.82,-16.22,-1.7020476.00,-9.37,-2.56,2.45,0.25,-0.26,-0.15,-68.53,-14.46,0.0020528.00,-8.00,-3.45,4.05,0.08,-0.25,-0.02,-68.53,-14.46,0.0020579.00,-10.72,-2.16,2.61,0.13,0.25,0.25,-68.53,-14.46,0.0020631.00,-9.24,-2.09,1.72,0.17,0.01,0.02,-67.12,-14.10,1.7020682.00,-9.61,-1.67,5.26,0.05,0.24,-0.36,-67.12,-14.10,1.7020734.00,-8.81,-3.68,1.68,0.14,0.37,-0.23,-68.18,-11.99,0.6820785.00,-9.00,-3.11,1.23,0.34,-0.09,0.01,-68.18,-11.99,0.6820837.00,-11.27,-3.66,3.22,0.59,-0.75,0.53,-67.12,-13.40,1.7020889.00,-9.08,-2.17,3.55,-0.44,-0.41,0.17,-67.12,-13.40,1.7020940.00,-6.04,-1.72,2.89,-0.43,-0.36,-0.13,-67.12,-13.40,1.7020992.00,-6.19,-3.95,3.43,0.11,0.02,-0.70,-66.24,-12.52,-2.5521043.00,-13.16,-3.15,1.61,0.08,0.30,0.29,-66.24,-12.52,-2.5521095.00,-9.96,-3.41,3.64,-0.03,0.31,0.10,-67.30,-12.87,-2.2121146.00,-8.48,-2.57,3.91,0.11,-0.17,0.05,-67.30,-12.87,-2.2121198.00,-8.73,-3.40,2.59,-0.03,0.11,-0.09,-67.30,-12.87,-2.2121249.00,-8.54,-2.86,3.28,0.02,0.04,-0.09,-68.00,-11.46,-1.5321301.00,-10.36,-3.18,3.21,-0.05,0.34,0.10,-68.00,-11.46,-1.5321353.00,-9.14,-2.28,2.27,-0.24,0.28,-0.05,-67.47,-12.69,-1.7021404.00,-8.50,-3.25,1.92,-0.15,0.08,-0.01,-67.47,-12.69,-1.7021456.00,-8.53,-3.17,2.49,0.27,-0.19,0.16,-67.47,-12.69,-1.7021508.00,-9.10,-2.31,2.21,0.02,0.15,-0.23,-67.47,-13.05,-0.6821559.00,-9.07,-2.51,2.69,-0.14,0.22,-0.26,-67.47,-13.05,-0.6821611.00,-10.55,-3.54,-0.04,-0.02,0.23,0.41,-66.95,-11.46,0.5121664.00,-9.83,-0.48,1.15,-0.07,-0.47,0.63,-66.95,-11.46,0.5121717.00,-6.12,-3.44,4.47,-0.01,-0.68,-0.42,-67.47,-13.40,0.3421767.00,-9.45,-6.54,5.83,0.45,-0.03,-0.44,-67.47,-13.40,0.3421817.00,-8.41,-1.15,1.33,0.28,0.10,0.13,-67.47,-13.40,0.3421868.00,-9.16,-2.82,1.97,-0.04,0.12,0.19,-67.30,-13.22,-1.5321918.00,-9.80,-1.71,3.47,0.05,-0.02,0.23,-67.30,-13.22,-1.5321968.00,-8.91,-2.60,2.55,-0.10,0.09,0.03,-67.47,-13.40,-1.0222018.00,-9.09,-2.22,3.53,-0.36,0.40,-0.33,-67.47,-13.40,-1.0222068.00,-8.89,-3.44,2.66,-0.35,0.11,-0.10,-67.47,-13.40,-1.0222118.00,-8.88,-2.80,1.13,-0.10,-0.09,0.26,-67.30,-11.81,-0.1722168.00,-9.24,-2.82,3.09,-0.09,-0.08,-0.09,-67.30,-11.81,-0.1722218.00,-7.96,-3.51,3.70,-0.04,-0.07,-0.28,-68.70,-12.16,0.1722268.00,-9.05,-3.28,2.23,-0.04,0.20,-0.02,-68.70,-12.16,0.1722318.00,-9.21,-2.42,2.69,-0.03,0.11,-0.11,-68.70,-12.16,0.1722368.00,-8.86,-3.11,1.50,-0.30,0.18,-0.05,-67.12,-11.64,0.6822418.00,-8.76,-3.60,2.88,0.02,-0.18,0.22,-67.12,-11.64,0.6822469.00,-9.18,-2.54,1.67,0.28,-0.17,0.01,-68.00,-11.81,0.5122519.00,-9.96,-2.24,3.00,0.09,-0.14,-0.12,-68.00,-11.81,0.5122569.00,-7.29,-3.69,4.27,-0.26,-0.09,-0.19,-68.00,-11.81,0.5122619.00,-7.97,-4.77,2.67,-0.23,0.39,0.19,-66.95,-11.81,-0.1722669.00,-8.94,-2.67,1.69,-0.18,0.35,-0.02,-66.95,-11.81,-0.1722720.00,-8.90,-2.61,0.74,-0.07,0.25,-0.28,-68.70,-11.81,2.5522770.00,-9.18,-3.04,1.58,0.01,-0.48,0.13,-68.70,-11.81,2.5522820.00,-7.76,-3.79,3.97,0.06,-0.26,0.32,-68.70,-11.81,2.5522870.00,-9.02,-2.57,0.51,-0.10,0.12,0.02,-68.88,-13.40,1.3622920.00,-10.26,-2.17,2.26,-0.01,-0.04,-0.24,-68.88,-13.40,1.3622971.00,-8.21,-3.66,2.92,-0.28,0.20,-0.13,-67.12,-12.34,0.6823021.00,-8.42,-3.83,2.30,-0.04,0.34,0.22,-67.12,-12.34,0.6823071.00,-9.14,-2.53,1.34,0.10,-0.00,0.09,-67.12,-12.34,0.6823121.00,-9.11,-2.95,2.31,0.17,0.04,-0.14,-68.00,-12.52,2.2123171.00,-8.73,-3.88,2.21,0.18,0.18,-0.21,-68.00,-12.52,2.2123222.00,-8.90,-3.54,1.18,0.24,0.03,-0.03,-67.47,-11.28,3.7423272.00,-11.58,-2.94,2.54,0.39,-0.47,0.25,-67.47,-11.28,3.7423322.00,-9.57,-1.65,1.75,-0.21,-0.27,0.40,-67.47,-11.28,3.7423372.00,-6.21,-2.00,3.26,-0.24,-0.35,-0.04,-68.53,-13.40,1.0223423.00,-5.49,-4.20,3.87,-0.08,-0.25,-0.61,-68.53,-13.40,1.0223473.00,-11.13,-1.45,-0.13,0.07,0.26,0.06,-69.23,-11.64,-0.3423523.00,-7.79,-2.97,4.00,-0.02,-0.10,-0.10,-69.23,-11.64,-0.3423573.00,-7.96,-3.55,2.60,-0.13,0.10,-0.05,-69.23,-11.64,-0.3423623.00,-8.37,-3.73,2.53,-0.17,0.24,0.10,-68.35,-11.11,-0.5123674.00,-8.88,-3.09,1.27,-0.07,0.11,0.17,-68.35,-11.11,-0.5123724.00,-8.87,-2.93,1.97,0.28,-0.30,0.13,-68.35,-11.11,-0.5123774.00,-9.31,-2.84,2.22,0.08,0.20,-0.22,-66.77,-10.93,0.0023825.00,-8.85,-3.50,2.04,-0.37,0.41,-0.23,-66.77,-10.93,0.0023875.00,-8.53,-2.85,0.03,-0.34,-0.30,0.48,-66.77,-10.23,2.3823925.00,-8.93,-3.03,2.30,0.56,-0.80,0.57,-66.77,-10.23,2.3823975.00,-9.94,-2.13,2.76,0.10,-0.09,-0.17,-67.65,-13.22,-1.1924026.00,-8.28,-3.12,3.44,-0.04,-0.27,-0.64,-67.65,-13.22,-1.1924076.00,-7.84,-4.45,2.14,-0.49,0.58,-0.20,-67.65,-13.22,-1.1924126.00,-9.09,-3.64,1.44,-0.10,0.38,0.17,-67.47,-11.64,0.0024177.00,-9.04,-3.17,1.52,-0.06,0.12,-0.01,-67.47,-11.64,0.0024227.00,-9.21,-2.86,2.48,-0.20,0.19,-0.06,-67.47,-11.64,0.0024277.00,-8.72,-4.01,1.37,-0.11,-0.03,0.02,-68.00,-11.81,2.2124328.00,-8.95,-3.39,2.35,0.19,-0.24,0.14,-68.00,-11.81,2.2124378.00,-9.11,-2.87,2.43,0.22,-0.02,-0.08,-66.95,-12.16,1.8724428.00,-9.26,-3.33,1.85,0.04,0.18,-0.21,-66.95,-12.16,1.8724478.00,-9.10,-4.13,1.22,-0.30,0.42,-0.19,-67.47,-10.93,3.7424529.00,-11.56,-2.94,-1.64,0.13,-0.18,0.25,-67.47,-10.93,3.7424579.00,-8.28,-4.18,4.76,-0.04,-0.97,0.32,-67.47,-10.93,3.7424629.00,-7.20,-3.77,2.36,-0.13,-0.59,0.16,-67.30,-11.81,0.8524680.00,-6.57,-2.71,3.69,0.12,0.02,-0.29,-67.30,-11.81,0.8524730.00,-13.95,-6.05,4.13,0.22,0.02,0.01,-66.95,-11.46,-1.5324780.00,-5.61,-3.67,2.41,0.41,-0.78,-0.04,-66.95,-11.46,-1.5324831.00,-8.49,-2.61,2.45,0.20,-0.11,0.09,-66.95,-11.46,-1.5324881.00,-8.81,-3.05,3.06,0.23,-0.06,0.22,-67.30,-12.87,-2.8924931.00,-8.49,-3.20,2.47,0.13,-0.07,0.14,-67.30,-12.87,-2.8924982.00,-8.83,-2.71,3.76,0.23,-0.05,0.36,-66.42,-14.10,-4.0825032.00,-9.15,-2.24,3.18,-0.09,0.14,-0.08,-66.42,-14.10,-4.0825083.00,-9.05,-2.51,3.21,-0.45,0.66,-0.66,-66.42,-14.10,-4.0825133.00,-8.86,-3.13,1.15,-0.03,0.08,-0.34,-68.70,-12.87,-1.5325183.00,-9.44,-2.93,0.65,0.10,-0.41,0.42,-68.70,-12.87,-1.5325233.00,-7.44,-3.37,3.85,-0.07,-0.30,0.36,-67.12,-13.05,-2.0425284.00,-10.87,-1.16,2.33,-0.43,0.32,0.32,-67.12,-13.05,-2.0425334.00,-8.46,-3.61,1.05,-0.19,0.39,-0.42,-67.12,-13.05,-2.0425384.00,-10.45,-2.82,1.45,0.22,-0.14,-0.25,-67.30,-12.16,-0.1725435.00,-8.10,-3.63,4.05,-0.06,-0.01,-0.20,-67.30,-12.16,-0.1725485.00,-8.07,-3.85,3.44,-0.18,0.44,0.02,-67.12,-11.28,-1.0225535.00,-9.08,-2.77,1.04,-0.24,0.43,0.11,-67.12,-11.28,-1.0225586.00,-8.89,-3.12,1.37,-0.12,0.09,0.10,-67.12,-11.28,-1.0225636.00,-8.70,-3.13,1.93,0.08,-0.12,0.11,-68.53,-11.64,1.3625687.00,-8.83,-3.10,2.98,0.42,-0.23,0.02,-68.53,-11.64,1.3625737.00,-9.06,-2.09,1.85,0.19,0.10,-0.12,-66.77,-12.69,-1.0225787.00,-9.15,-3.92,1.58,-0.30,0.42,-0.36,-66.77,-12.69,-1.0225838.00,-9.83,-2.56,1.85,-0.12,-0.18,0.23,-66.77,-12.69,-1.0225888.00,-7.98,-3.69,2.76,-0.11,-0.50,-0.18,-66.95,-11.81,0.5125939.00,-8.21,-3.99,2.57,-0.17,0.41,0.16,-66.95,-11.81,0.5125989.00,-9.01,-3.33,0.31,-0.10,0.26,0.00,-68.53,-11.28,0.6826039.00,-9.22,-3.76,1.93,0.18,-0.00,-0.09,-68.53,-11.28,0.6826090.00,-9.31,-2.85,1.73,0.02,0.05,-0.19,-68.53,-11.28,0.6826140.00,-8.73,-4.12,1.84,-0.24,0.07,-0.02,-66.42,-10.58,1.0226191.00,-9.01,-3.20,2.36,-0.08,-0.18,0.19,-66.42,-10.58,1.0226241.00,-8.90,-3.04,2.82,0.10,-0.08,0.04,-67.30,-11.81,0.8526291.00,-8.95,-2.70,1.91,-0.19,0.30,-0.23,-67.30,-11.81,0.8526342.00,-8.95,-3.67,-0.03,-0.18,0.17,-0.13,-67.30,-11.81,0.8526392.00,-7.97,-3.95,2.51,-0.02,-0.42,-0.08,-67.47,-10.58,2.7226443.00,-8.49,-3.74,2.86,0.00,-0.11,0.06,-67.47,-10.58,2.7226493.00,-8.69,-3.99,1.76,-0.06,0.18,0.04,-66.07,-11.99,1.3626543.00,-9.13,-3.56,1.08,-0.07,0.18,0.07,-66.07,-11.99,1.3626594.00,-8.97,-3.26,1.86,-0.01,0.07,-0.03,-66.07,-11.99,1.3626644.00,-8.96,-3.44,1.35,-0.08,0.18,-0.19,-66.95,-10.75,1.1926695.00,-9.03,-4.11,1.30,-0.28,0.37,-0.24,-66.95,-10.75,1.1926745.00,-9.17,-3.20,1.33,-0.21,0.14,-0.03,-67.82,-9.87,3.7426796.00,-8.80,-3.68,1.98,0.04,-0.18,0.19,-67.82,-9.87,3.7426846.00,-9.09,-3.05,1.71,0.06,-0.07,0.10,-67.82,-9.87,3.7426897.00,-8.98,-3.53,1.63,0.00,-0.00,-0.02,-66.42,-11.99,3.7426947.00,-9.02,-3.25,1.19,0.00,-0.01,-0.00,-66.42,-11.99,3.7426998.00,-9.84,-3.71,0.07,0.03,-0.31,-0.31,-67.65,-9.34,1.1927048.00,-8.15,-4.57,3.37,0.09,-0.55,-0.14,-67.65,-9.34,1.1927099.00,-9.14,-4.85,2.81,0.13,-0.16,0.41,-67.65,-9.34,1.1927149.00,-9.13,-4.25,4.15,0.48,-0.67,0.35,-66.42,-12.69,2.0427199.00,-7.31,-2.23,2.27,0.72,-0.21,-0.26,-66.42,-12.69,2.0427250.00,-8.31,-1.99,1.22,0.12,-0.24,-0.04,-66.59,-11.46,1.1927301.00,-8.56,-3.95,1.62,-0.06,-0.14,-0.37,-66.59,-11.46,1.1927351.00,-9.20,-3.52,1.91,0.08,-0.12,0.29,-66.59,-11.46,1.1927401.00,-8.42,-3.20,5.18,0.35,-0.20,-0.08,-66.42,-12.69,-1.7027452.00,-8.45,-3.33,1.61,0.16,0.36,0.35,-66.42,-12.69,-1.7027503.00,-9.81,-1.38,3.59,0.33,0.02,0.03,-66.07,-15.16,-0.3427553.00,-9.23,-3.28,2.81,-0.10,0.45,-0.05,-66.07,-15.16,-0.3427604.00,-9.97,-2.37,1.15,-0.01,0.24,-0.07,-66.07,-15.16,-0.3427654.00,-8.84,-3.74,2.64,0.11,0.18,-0.06,-65.89,-13.57,0.8527705.00,-9.31,-2.22,2.12,0.18,0.02,0.09,-65.89,-13.57,0.8527755.00,-9.10,-2.64,2.69,0.02,0.02,0.03,-66.77,-11.99,1.0227806.00,-9.07,-2.79,2.59,-0.02,0.01,0.06,-66.77,-11.99,1.0227856.00,-9.00,-2.57,2.60,-0.02,0.01,0.04,-66.95,-13.22,-0.8527907.00,-8.92,-3.08,2.51,-0.02,0.03,-0.02,-66.95,-13.22,-0.8527957.00,-9.02,-2.65,3.13,-0.02,0.16,-0.16,-66.95,-13.22,-0.8528008.00,-8.91,-2.61,1.58,0.09,0.12,-0.08,-65.89,-14.63,0.5128059.00,-8.96,-2.75,1.79,-0.24,0.07,0.05,-65.89,-14.63,0.5128109.00,-9.01,-3.22,1.77,-0.15,-0.04,0.05,-65.89,-14.63,0.5128160.00,-9.11,-2.30,3.01,0.06,0.04,-0.03,-66.24,-12.52,0.8528210.00,-8.94,-3.52,1.58,0.08,0.32,-0.25,-66.24,-12.52,0.8528261.00,-9.00,-3.26,2.41,-0.13,0.02,-0.04,-65.72,-12.34,0.0028311.00,-9.07,-2.80,2.02,-0.19,-0.03,0.05,-65.72,-12.34,0.0028362.00,-8.93,-2.44,2.20,0.02,0.09,0.03,-66.24,-14.28,2.2128413.00,-8.73,-3.43,2.59,0.08,0.11,-0.09,-66.24,-14.28,2.2128463.00,-9.60,-2.87,2.22,0.21,-0.10,-0.05,-66.24,-14.28,2.2128514.00,-8.54,-2.81,2.68,-0.42,-0.01,-0.01,-67.12,-14.10,1.0228564.00,-7.99,-3.81,3.19,-0.11,0.10,0.11,-67.12,-14.10,1.0228615.00,-9.08,-2.57,1.50,-0.03,-0.01,0.00,-66.07,-13.40,1.3628665.00,-8.81,-2.75,2.22,0.06,-0.00,-0.09,-66.07,-13.40,1.3628716.00,-9.46,-2.75,2.77,-0.10,0.16,-0.40,-66.07,-13.40,1.3628766.00,-8.85,-3.61,1.28,-0.29,0.08,-0.01,-64.49,-12.87,2.8928817.00,-9.02,-3.04,2.61,0.10,-0.14,0.12,-64.49,-12.87,2.8928868.00,-9.17,-2.95,2.18,0.01,0.05,-0.04,-65.54,-13.57,3.5728918.00,-9.12,-3.10,2.42,-0.16,0.25,-0.33,-65.54,-13.57,3.5728969.00,-9.28,-3.27,1.52,-0.01,-0.06,-0.06,-65.54,-13.57,3.5729019.00,-7.88,-3.67,3.29,-0.06,-0.28,-0.02,-66.59,-11.46,2.2129070.00,-8.21,-3.67,3.07,-0.10,0.24,0.22,-66.59,-11.46,2.2129121.00,-9.26,-2.26,2.24,-0.03,0.14,-0.02,-67.12,-12.69,2.0429171.00,-8.91,-3.74,-0.54,-0.10,0.27,-0.38,-67.12,-12.69,2.0429222.00,-8.50,-3.65,1.32,-0.00,-0.46,0.17,-67.12,-12.69,2.0429273.00,-8.01,-2.93,5.07,0.21,-0.37,0.56,-66.07,-11.28,2.3829323.00,-9.23,-2.07,1.84,0.05,0.02,0.03,-66.07,-11.28,2.3829374.00,-9.44,-3.28,1.81,0.06,0.03,-0.17,-65.89,-11.46,1.8729425.00,-8.08,-3.66,2.73,-0.26,0.07,-0.17,-65.89,-11.46,1.8729475.00,-10.26,-2.52,1.58,-0.10,0.27,0.19,-65.89,-11.46,1.8729526.00,-9.14,-2.56,1.39,0.04,-0.01,0.06,-66.77,-13.40,4.7629576.00,-9.26,-3.54,1.45,0.01,0.14,-0.18,-66.77,-13.40,4.7629627.00,-9.26,-2.64,1.75,-0.02,0.15,-0.13,-66.42,-13.05,2.7229678.00,-8.63,-4.22,1.53,0.21,-0.01,-0.02,-66.42,-13.05,2.7229728.00,-9.87,-3.80,0.80,0.65,-0.45,0.29,-66.42,-13.05,2.7229779.00,-8.87,-2.54,2.05,0.15,-0.35,0.36,-65.36,-12.69,3.0629830.00,-8.50,-1.82,0.96,-0.38,-0.16,0.36,-65.36,-12.69,3.0629880.00,-6.76,-2.66,2.92,-0.08,-0.67,-0.38,-67.47,-14.81,1.3629931.00,-8.88,-5.54,6.26,0.28,-0.51,-0.36,-67.47,-14.81,1.3629982.00,-7.12,-1.84,2.42,0.32,-0.19,0.10,-67.47,-14.81,1.3630032.00,-11.10,-2.85,1.52,0.26,0.09,0.16,-66.77,-15.16,-2.3830083.00,-8.93,-2.35,4.22,0.24,-0.30,0.04,-66.77,-15.16,-2.3830134.00,-8.55,-2.94,2.68,0.10,-0.05,0.01,-66.42,-13.40,-3.0630185.00,-9.31,-2.17,2.06,0.03,0.33,0.07,-66.42,-13.40,-3.0630235.00,-9.02,-2.15,2.63,-0.43,0.24,-0.18,-67.47,-13.40,-3.0630286.00,-8.57,-3.36,2.59,-0.08,-0.05,0.06,-67.47,-15.87,-0.3430337.00,-9.03,-2.36,2.70,0.10,-0.04,0.09,-67.47,-15.87,-0.3430387.00,-9.73,-1.69,3.56,0.02,0.17,-0.24,-66.24,-15.69,-0.1730438.00,-7.59,-4.55,0.66,-0.36,0.96,-0.72,-66.24,-15.69,-0.1730489.00,-8.70,-2.91,0.60,0.41,-0.05,-0.07,-66.24,-15.69,-0.1730540.00,-9.04,-2.63,2.90,0.91,-1.13,0.53,-65.54,-12.87,1.1930590.00,-10.39,-0.82,3.98,0.17,-0.78,0.36,-65.54,-12.87,1.1930641.00,-7.75,-2.90,4.74,-0.11,-0.31,0.28,-66.24,-13.57,-4.2530692.00,-7.21,-3.59,5.02,-0.31,0.38,0.44,-66.24,-13.57,-4.2530742.00,-8.94,-1.77,0.98,-0.08,0.15,0.04,-65.54,-14.99,-2.2130793.00,-9.75,-1.46,4.77,0.03,-0.19,-0.08,-65.54,-14.99,-2.2130844.00,-6.59,-4.51,3.07,-0.41,0.10,-0.59,-65.54,-14.99,-2.2130895.00,-8.16,-3.92,4.03,0.15,0.24,0.10,-65.54,-14.99,-0.8530945.00,-9.22,-2.11,1.93,-0.13,0.20,0.09,-65.54,-14.99,-0.8530996.00,-8.60,-3.27,2.01,-0.14,-0.02,-0.04,-65.36,-15.51,-42.8031047.00,-8.49,-3.24,2.92,0.06,-0.13,0.10,-65.36,-15.51,0.6831098.00,-9.28,-2.57,2.70,0.21,0.06,-0.12,-65.36,-15.51,0.6831148.00,-9.14,-1.83,2.53,0.05,0.14,-0.09,-65.54,-12.52,-1.5331199.00,-9.13,-3.27,1.96,-0.30,0.34,-0.15,-65.54,-12.52,-1.5331250.00,-11.12,-2.77,0.34,-0.15,-0.24,0.46,-65.72,-14.46,0.0031301.00,-7.36,-1.37,1.91,-0.42,0.01,0.02,-65.72,-14.46,0.0031352.00,-7.37,-1.87,4.10,-0.01,0.00,-0.53,-65.72,-14.46,0.0031402.00,-8.85,-4.08,2.85,0.33,0.14,-0.14,-66.07,-12.69,-1.3631453.00,-9.42,-2.70,1.78,0.27,-0.07,0.11,-66.07,-12.69,-1.3631504.00,-8.72,-2.76,3.51,0.16,-0.29,0.30,-65.72,-14.46,0.3431555.00,-8.61,-2.82,3.51,-0.04,0.15,0.33,-65.72,-14.46,0.3431605.00,-9.26,-2.12,3.16,-0.17,0.17,-0.14,-65.72,-14.46,0.3431656.00,-8.55,-3.23,1.50,-0.18,0.35,-0.32,-66.07,-15.16,-0.3431707.00,-9.10,-3.27,2.22,-0.20,-0.02,-0.01,-66.07,-15.16,-0.3431758.00,-8.89,-2.74,2.41,-0.06,-0.06,0.11,-65.72,-14.46,-0.3431808.00,-8.84,-2.12,3.72,-0.12,0.19,-0.19,-65.72,-14.46,-0.3431859.00,-9.19,-3.36,2.05,0.12,-0.05,-0.18,-64.49,-13.57,0.8531910.00,-8.79,-3.26,2.69,0.02,-0.42,-0.01,-64.49,-13.57,0.8531961.00,-8.21,-3.51,3.60,-0.10,0.26,0.14,-64.49,-13.57,0.8532012.00,-9.09,-2.85,1.70,-0.20,0.35,-0.07,-66.07,-13.75,1.0232062.00,-8.79,-3.57,1.57,-0.16,0.00,-0.01,-66.07,-13.75,1.0232113.00,-8.76,-3.08,2.71,0.07,-0.16,0.10,-66.07,-13.75,1.0232164.00,-8.85,-2.91,2.38,0.17,-0.09,-0.03,-66.07,-13.75,1.3632215.00,-9.26,-2.99,0.78,0.15,0.27,-0.17,-66.07,-13.75,1.3632265.00,-9.26,-4.06,-0.92,-0.19,0.41,0.06,-66.24,-12.52,-0.1732316.00,-10.89,-1.76,-0.19,-0.04,-0.54,0.40,-66.24,-12.52,-0.1732367.00,-6.90,-2.79,3.37,-0.05,-0.50,-0.16,-66.24,-12.52,-0.1732418.00,-8.04,-5.76,5.86,0.20,-0.15,-0.92,-65.36,-14.81,-0.3432469.00,-9.18,-2.99,1.49,0.37,0.37,-0.07,-65.36,-14.81,-0.3432520.00,-9.64,-1.99,2.10,0.38,-0.01,0.13,-64.84,-10.75,-0.8532570.00,-8.42,-3.38,3.26,0.01,0.01,0.05,-64.84,-10.75,-0.8532621.00,-9.18,-2.79,1.82,-0.09,0.28,0.02,-66.24,-13.22,-0.1732672.00,-9.31,-2.70,2.65,-0.29,0.02,-0.01,-66.24,-13.22,-0.1732723.00,-8.59,-3.92,3.00,0.03,-0.12,0.08,-66.24,-13.22,-0.1732774.00,-9.06,-2.29,2.03,0.03,-0.01,0.06,-65.36,-12.69,0.0032824.00,-8.16,-4.35,1.48,-0.48,0.71,-0.54,-65.36,-12.69,0.0032875.00,-8.97,-3.48,1.68,0.10,0.07,-0.09,-65.36,-12.69,0.0032926.00,-9.55,-2.60,2.93,0.27,-0.55,0.22,-66.07,-11.64,1.0232977.00,-8.88,-3.46,2.97,-0.30,-0.07,-0.26,-66.07,-11.64,1.0233028.00,-7.57,-4.61,3.23,-0.33,0.43,0.11,-65.19,-11.81,-0.8533079.00,-8.86,-2.86,1.29,-0.13,0.07,0.11,-65.19,-11.81,-0.8533129.00,-9.18,-3.27,1.99,0.18,-0.00,-0.02,-66.07,-11.99,2.0433180.00,-9.16,-3.39,1.38,-0.09,0.19,-0.32,-66.07,-11.99,2.0433231.00,-8.58,-4.04,1.43,-0.20,-0.02,0.06,-66.07,-11.99,2.0433282.00,-8.99,-3.12,2.05,0.03,-0.06,0.13,-65.89,-12.16,1.8733333.00,-9.06,-3.11,2.43,0.03,0.08,-0.07,-65.89,-12.16,1.8733384.00,-9.04,-3.33,0.20,-0.05,0.15,-0.23,-66.77,-12.34,2.3833435.00,-8.43,-3.79,2.84,-0.04,-0.44,-0.14,-66.77,-12.34,2.3833485.00,-11.04,-3.82,4.19,-0.05,0.19,0.31,-66.77,-12.34,2.3833536.00,-8.98,-2.31,1.26,-0.10,0.32,-0.01,-66.77,-11.28,1.3633587.00,-8.88,-4.29,0.19,-0.05,0.03,-0.34,-66.77,-11.28,1.3633638.00,-8.78,-4.04,1.70,-0.01,-0.51,0.09,-66.59,-11.46,1.8733689.00,-11.65,0.09,2.43,-0.14,0.01,0.53,-66.59,-11.46,1.8733740.00,-9.27,-3.20,1.59,-0.14,0.17,-0.30,-66.95,-12.52,2.8933791.00,-8.75,-3.71,1.81,-0.24,-0.07,-0.40,-66.95,-12.52,2.8933842.00,-8.10,-4.40,2.45,-0.15,0.22,0.24,-66.95,-12.52,2.8933892.00,-9.20,-3.78,0.89,-0.05,0.23,0.14,-65.19,-10.40,3.9133943.00,-9.10,-2.59,1.52,0.01,0.14,-0.24,-65.19,-10.40,3.9133994.00,-8.74,-4.58,1.24,-0.01,0.25,-0.37,-65.19,-10.40,3.9134045.00,-8.90,-3.91,0.06,0.47,-0.44,-0.09,-67.82,-9.87,4.7634096.00,-11.92,-2.55,-0.02,0.23,-0.71,-0.31,-67.82,-9.87,4.7634147.00,-8.12,-7.75,5.49,-0.01,-0.94,0.12,-66.07,-9.52,-1.3634198.00,-7.08,-1.59,1.14,-0.02,-0.52,1.32,-66.07,-9.52,-1.3634249.00,-7.17,-5.14,2.86,0.09,0.62,-0.44,-66.07,-9.52,-1.3634300.00,-6.27,-3.40,3.74,-0.25,-0.75,-0.34,-67.12,-11.64,-1.3634351.00,-6.47,-2.93,0.22,0.08,-0.54,-0.00,-67.12,-11.64,-1.3634402.00,-2.92,1.79,3.90,0.86,-1.33,0.73,-66.77,-12.34,-4.4234453.00,-10.26,-2.43,5.27,0.54,0.53,0.02,-66.77,-12.34,-4.4234504.00,-7.25,-2.67,5.09,0.24,-0.47,-0.16,-64.66,-15.87,-6.1134555.00,-9.25,-2.81,3.13,-0.07,0.47,-0.16,-64.66,-15.87,-6.1134606.00,-8.69,-1.80,4.98,0.26,-0.23,0.20,-64.66,-15.87,-6.1134657.00,-8.34,-3.39,3.50,0.06,0.29,0.07,-64.84,-14.63,-6.9634708.00,-9.07,-1.66,3.03,-0.03,0.06,0.02,-64.84,-14.63,-6.9634759.00,-8.35,-2.45,4.76,-0.43,0.31,-0.47,-64.84,-14.63,-6.9634810.00,-9.00,-1.83,2.24,0.01,0.06,-0.27,-66.07,-13.75,-4.7634861.00,-8.24,-2.58,2.80,0.20,-0.54,0.28,-66.07,-13.75,-4.7634912.00,-7.99,-2.63,5.41,0.35,-0.29,0.46,-66.95,-14.63,-4.2534963.00,-9.03,-1.52,2.95,-0.32,0.01,0.25,-66.95,-14.63,-4.2535014.00,-8.75,-1.57,4.33,-0.40,0.23,-0.13,-64.66,-14.81,-4.7635065.00,-8.51,-3.79,3.17,0.12,0.12,-0.29,-64.66,-14.81,-4.7635115.00,-8.88,-2.58,1.83,0.20,-0.15,0.06,-64.66,-14.81,-4.7635167.00,-9.03,-1.58,4.05,-0.17,-0.34,0.03,-66.95,-13.93,-5.6135218.00,-7.40,-3.41,5.02,-0.38,0.08,-0.15,-66.95,-13.93,-5.6135268.00,-8.57,-2.65,2.51,-0.20,0.29,0.10,-66.59,-13.93,-4.9335319.00,-9.56,-2.19,3.25,-0.06,0.14,0.20,-66.59,-13.93,-4.9335370.00,-8.72,-2.72,3.30,-0.01,0.03,0.02,-66.59,-13.93,-4.9335422.00,-8.61,-2.64,4.11,0.23,-0.11,-0.07,-67.30,-13.93,-5.6135472.00,-9.14,-1.95,3.45,-0.17,0.19,-0.28,-67.30,-13.93,-5.6135523.00,-8.63,-3.51,2.79,-0.28,0.06,0.02,-65.89,-12.87,-3.2335575.00,-8.40,-3.36,2.76,0.07,-0.23,0.26,-65.89,-12.87,-3.2335626.00,-8.72,-2.65,3.46,0.08,-0.01,-0.02,-66.42,-14.46,-4.7635677.00,-8.90,-2.28,3.01,-0.07,0.14,-0.19,-66.42,-14.46,-4.7635727.00,-8.34,-4.11,1.49,-0.60,0.40,-0.27,-66.42,-14.46,-4.7635779.00,-8.68,-3.17,3.19,-0.04,-0.12,0.18,-66.07,-11.99,-3.4035830.00,-8.88,-2.84,3.44,0.01,-0.05,0.06,-66.07,-11.99,-3.4035881.00,-8.96,-2.76,3.78,-0.16,0.21,-0.12,-66.07,-11.99,-3.4035932.00,-8.59,-3.54,3.09,0.07,0.10,-0.19,-65.72,-13.75,-4.0835983.00,-8.84,-3.30,2.98,0.36,-0.35,-0.04,-65.72,-13.75,-4.0836034.00,-10.11,-2.88,3.01,0.02,-0.28,-0.25,-66.95,-10.40,-2.2136085.00,-7.68,-4.98,5.45,0.05,-0.67,-0.27,-66.95,-10.40,-2.2136136.00,-7.67,-5.83,6.10,-0.19,-0.28,0.28,-66.95,-10.40,-2.2136187.00,-7.63,-2.58,2.91,0.17,-0.13,0.04,-66.95,-10.40,-2.2136238.00,-6.40,-2.19,2.81,0.06,-0.27,-0.09,-66.95,-10.40,-2.2136289.00,-8.12,-1.89,2.43,-0.15,0.10,-0.27,-65.54,-11.46,-6.9636340.00,-9.11,-3.12,2.30,-0.27,0.05,-0.08,-65.54,-11.46,-6.9636391.00,-9.88,-3.08,5.61,0.84,-0.25,0.37,-65.19,-12.52,-5.6136442.00,-8.10,-2.87,3.02,0.59,-0.02,0.09,-65.19,-12.52,-5.6136493.00,-7.40,-0.59,3.66,0.19,0.38,-0.13,-65.19,-12.52,-5.6136544.00,-11.74,-2.93,0.83,-0.57,1.01,-0.17,-64.49,-13.57,-4.5936595.00,-6.77,-3.28,3.57,-0.03,0.10,-0.29,-64.49,-13.57,-4.5936646.00,-8.45,-2.70,1.79,0.00,0.24,0.06,-66.24,-13.22,-1.8736697.00,-8.49,-3.26,3.17,-0.01,0.04,0.17,-66.24,-13.22,-1.8736749.00,-8.88,-2.94,2.34,0.26,-0.07,0.14,-66.24,-13.22,-1.8736800.00,-8.73,-2.73,3.68,0.22,-0.09,-0.03,-66.24,-14.28,-1.1936851.00,-9.42,-2.17,4.31,-0.13,0.19,-0.29,-66.24,-14.28,-1.1936902.00,-8.79,-2.98,1.39,-0.39,0.02,0.14,-65.54,-13.22,-0.5136953.00,-8.16,-4.27,1.94,0.17,-0.23,0.20,-65.54,-13.22,-0.5137004.00,-9.18,-1.67,3.35,0.45,-0.20,0.05,-65.72,-13.75,-2.3837055.00,-9.49,-2.65,2.39,-0.05,0.06,-0.25,-65.72,-13.75,-2.3837106.00,-7.56,-4.04,4.13,-0.20,-0.01,-0.21,-65.72,-13.75,-2.3837158.00,-8.07,-4.12,3.17,-0.07,0.30,0.26,-64.49,-12.16,-2.5537209.00,-8.73,-2.92,1.70,0.03,0.08,0.03,-64.49,-12.16,-2.5537260.00,-9.21,-2.36,2.83,0.07,0.27,-0.16,-64.49,-12.16,-2.5537311.00,-8.97,-2.94,1.19,-0.38,0.15,-0.00,-66.59,-11.81,-0.5137362.00,-9.80,-2.29,3.10,0.39,-0.49,0.18,-66.59,-11.81,-0.5137413.00,-7.85,-3.86,2.46,-0.02,-0.43,-0.37,-65.89,-12.52,-1.1937464.00,-8.18,-3.62,3.50,0.21,-0.14,0.45,-65.89,-12.52,-1.1937515.00,-9.51,-2.12,3.94,-0.07,0.20,0.33,-66.77,-13.75,-1.3637567.00,-8.94,-3.55,0.08,-0.17,0.38,-0.39,-66.77,-13.75,-1.3637618.00,-9.89,-4.50,0.54,0.17,-0.18,0.03,-66.77,-13.75,-1.3637669.00,-7.62,-1.65,3.79,0.19,-0.19,0.76,-66.24,-12.87,-1.5337720.00,-7.85,0.50,2.71,0.13,0.07,-0.12,-66.24,-12.87,-1.5337771.00,-9.27,-4.66,4.54,0.77,-0.11,-0.11,-64.66,-13.40,-2.7237822.00,-8.28,-2.38,3.62,0.36,-0.12,0.02,-64.66,-13.40,-2.7237874.00,-11.95,-1.23,3.37,0.09,0.26,0.31,-64.66,-13.40,-2.7237925.00,-9.00,-2.58,3.24,-0.47,0.19,-0.17,-66.42,-14.46,-2.0437976.00,-8.38,-3.45,2.29,-0.19,-0.00,-0.02,-66.42,-14.46,-2.0438027.00,-9.03,-2.94,2.90,0.35,-0.19,0.07,-65.36,-14.46,-1.3638078.00,-9.90,-1.71,3.67,0.08,0.10,-0.25,-65.36,-14.46,-1.3638129.00,-9.07,-2.57,2.89,-0.63,0.40,-0.38,-65.36,-14.46,-1.3638181.00,-8.41,-4.18,1.85,0.01,-0.41,-0.12,-65.89,-14.63,-1.8738232.00,-8.46,-3.27,4.51,0.02,0.14,0.26,-65.89,-14.63,-1.8738283.00,-9.06,-2.17,1.99,-0.44,0.06,-0.00,-65.36,-13.75,-0.6838334.00,-8.33,-3.58,3.02,-0.16,-0.13,0.14,-65.36,-13.75,-0.6838386.00,-9.00,-2.57,2.57,0.45,-0.27,0.24,-65.89,-14.28,-2.2138437.00,-8.77,-2.36,3.63,0.33,-0.10,-0.05,-65.89,-14.28,-2.2138488.00,-8.59,-2.30,3.35,-0.28,0.60,-0.65,-65.89,-14.28,-2.2138539.00,-8.88,-3.53,1.51,-0.21,0.18,-0.40,-65.36,-13.05,-1.7038590.00,-7.07,-4.19,4.51,-0.03,-0.66,0.22,-65.36,-13.05,-1.7038641.00,-11.36,-1.24,4.26,-0.22,0.24,0.47,-65.36,-13.05,-1.7038692.00,-8.94,-3.24,2.40,-0.08,-0.13,0.11,-65.36,-12.69,-2.0438744.00,-8.82,-2.83,3.20,0.21,-0.21,0.12,-65.36,-12.69,-2.0438795.00,-9.29,-2.95,3.38,0.19,-0.00,-0.18,-65.19,-12.52,-2.2138846.00,-8.97,-2.88,2.57,-0.25,0.63,-0.62,-65.19,-12.52,-2.2138897.00,-9.08,-2.65,0.92,-0.04,0.22,-0.25,-66.77,-12.69,-0.3438948.00,-8.10,-3.95,4.35,0.09,-0.48,-0.08,-66.77,-12.69,-0.3439000.00,-7.92,-4.10,4.11,-0.01,0.16,0.13,-66.77,-12.69,-0.3439051.00,-9.03,-2.91,2.55,-0.32,0.19,-0.10,-65.72,-11.99,-0.6839102.00,-8.43,-4.24,1.92,-0.19,-0.02,0.04,-65.72,-11.99,-0.6839153.00,-8.88,-2.93,2.32,0.26,-0.11,0.13,-65.01,-12.69,-0.3439205.00,-9.87,-3.03,2.74,0.20,0.32,-0.34,-65.01,-12.69,-0.3439256.00,-10.88,-5.01,0.72,0.29,0.18,0.53,-65.01,-12.69,-0.3439308.00,-8.28,-0.94,3.23,0.23,-1.14,0.25,-66.24,-13.57,0.1739359.00,-4.90,-2.48,5.24,0.47,-0.79,-0.40,-66.24,-13.57,0.1739410.00,-12.00,-6.54,5.41,-0.01,0.22,-0.39,-66.24,-13.22,-3.5739461.00,-6.98,-1.24,2.77,0.16,-0.12,0.15,-66.24,-13.22,-3.5739513.00,-9.33,-2.23,1.48,0.01,0.08,0.21,-66.24,-13.22,-3.5739564.00,-8.77,-2.70,3.32,0.28,-0.32,0.21,-65.36,-14.81,-2.0439615.00,-8.42,-2.90,3.94,-0.04,0.14,0.13,-65.36,-14.81,-2.0439666.00,-8.93,-2.15,3.14,-0.10,0.01,0.05,-65.36,-15.51,-2.3839718.00,-9.22,-2.27,3.16,-0.11,0.05,-0.01,-65.36,-15.51,-2.3839769.00,-8.43,-3.95,1.55,-0.73,0.65,-0.55,-65.54,-13.57,-1.1939820.00,-9.20,-2.45,2.82,-0.29,0.09,-0.01,-65.54,-13.57,-1.1939871.00,-9.11,-1.64,3.48,0.07,-0.32,0.26,-65.54,-13.57,-1.1939923.00,-9.69,-2.09,2.80,-0.03,-0.11,-0.09,-66.07,-13.75,-1.3639974.00,-8.11,-3.14,4.28,-0.08,0.08,-0.04,-66.07,-13.75,-1.3640025.00,-8.86,-3.02,2.32,-0.31,0.26,0.02,-65.54,-12.87,-0.5140077.00,-8.91,-3.28,2.22,0.05,0.03,0.05,-65.54,-12.87,-0.5140128.00,-9.26,-1.87,3.56,-0.02,-0.04,-0.28,-65.54,-12.87,-0.5140179.00,-8.49,-4.19,2.26,-0.22,0.08,-0.24,-66.59,-12.87,-0.1740230.00,-8.96,-2.77,2.23,-0.05,-0.07,0.21,-66.59,-12.87,-0.1740282.00,-9.10,-2.24,2.03,0.06,0.00,0.06,-66.59,-13.57,-0.1740333.00,-9.03,-4.12,1.74,0.05,0.19,-0.54,-66.59,-13.57,-0.1740384.00,-9.06,-5.02,2.28,0.16,-0.79,-0.37,-66.59,-13.57,-0.1740436.00,-7.16,-5.37,4.85,0.66,-0.92,0.35,-66.59,-13.57,-0.1740487.00,-7.02,-3.28,4.13,0.67,0.11,0.18,-66.59,-13.57,-0.1740538.00,-8.01,0.44,2.92,0.63,0.12,0.27,-65.36,-14.46,-3.4040589.00,-9.40,-2.24,1.94,0.41,0.30,-0.13,-65.36,-14.46,-3.4040641.00,-10.81,-0.37,2.20,0.02,0.52,0.33,-65.36,-14.46,-3.4040692.00,-8.87,-2.68,2.92,-0.62,0.27,0.26,-65.72,-13.75,-2.0440743.00,-7.72,-1.89,2.04,-0.19,0.15,0.12,-65.72,-13.75,-2.0440795.00,-8.55,-1.39,2.29,0.04,0.06,-0.24,-66.59,-14.28,-0.1740846.00,-9.45,-3.46,2.61,0.24,-0.18,-0.28,-66.59,-14.28,-0.1740897.00,-8.16,-3.09,4.32,0.25,-0.34,-0.10,-66.59,-14.28,-0.1740949.00,-8.95,-1.98,2.89,0.15,-0.13,0.13,-66.59,-13.57,-2.8941000.00,-8.78,-2.43,3.69,-0.03,0.08,0.14,-66.59,-13.57,-2.8941052.00,-9.24,-2.32,3.40,-0.02,0.24,0.07,-65.89,-15.34,-2.2141103.00,-9.03,-2.21,2.77,-0.07,0.07,-0.05,-65.89,-15.34,-2.2141154.00,-9.01,-2.25,2.31,-0.55,0.47,-0.25,-64.66,-13.40,0.3441206.00,-8.52,-3.21,1.52,-0.44,0.21,-0.00,-64.66,-13.40,0.3441257.00,-8.87,-2.56,3.05,0.09,-0.02,0.05,-64.66,-13.40,0.3441308.00,-8.46,-3.05,3.29,0.03,0.21,-0.48,-67.12,-13.40,0.6841360.00,-9.91,-2.83,2.44,0.07,0.20,-0.48,-67.12,-13.40,0.6841411.00,-9.19,-2.32,2.38,0.23,-0.39,0.14,-66.42,-11.99,0.3441463.00,-9.06,-2.30,4.30,0.47,-0.50,0.35,-66.42,-11.99,0.3441514.00,-8.93,-2.32,3.24,-0.28,0.23,-0.14,-66.42,-11.99,0.3441565.00,-8.87,-3.18,2.27,-0.50,0.60,-0.49,-65.72,-12.69,1.0241616.00,-10.30,-3.74,0.68,0.12,-0.21,0.24,-65.72,-12.69,1.0241668.00,-7.65,-2.00,2.95,-0.08,-0.33,0.53,-66.24,-12.16,0.5141719.00,-6.82,-2.03,3.57,0.29,-0.52,-0.06,-66.24,-12.16,0.5141771.00,-9.05,-2.05,3.33,0.40,-0.06,0.23,-66.42,-13.75,-0.6841822.00,-8.76,-3.05,3.18,0.20,0.01,0.11,-66.42,-13.75,-0.6841874.00,-9.29,-1.75,3.08,-0.04,0.05,0.18,-66.42,-13.75,-0.6841925.00,-8.83,-2.40,3.76,-0.12,0.06,-0.02,-64.84,-16.40,-1.8741976.00,-9.01,-2.64,2.22,0.08,0.03,-0.40,-64.84,-16.40,-1.8742028.00,-8.35,-2.41,3.93,0.14,-0.28,-0.30,-65.89,-12.87,-0.5142079.00,-8.27,-3.22,3.86,-0.10,0.34,-0.25,-65.89,-12.87,-0.5142130.00,-10.07,-1.52,2.24,0.23,0.30,0.17,-65.89,-12.87,-0.5142182.00,-9.03,-2.51,3.04,-0.17,0.27,-0.17,-67.65,-11.81,-0.8542234.00,-8.51,-3.23,2.49,-0.15,-0.07,0.06,-67.65,-11.81,-0.8542285.00,-8.66,-3.15,2.72,0.18,-0.12,0.08,-66.77,-12.69,0.6842337.00,-9.35,-1.56,3.84,0.25,-0.09,-0.13,-66.77,-12.69,0.6842388.00,-9.00,-2.84,2.70,-0.40,0.30,-0.34,-66.77,-12.69,0.6842439.00,-8.91,-3.46,1.33,-0.27,0.12,-0.11,-65.36,-10.93,0.3442491.00,-8.06,-3.44,3.96,-0.26,0.02,0.02,-65.36,-10.93,0.3442542.00,-9.03,-2.92,2.46,-0.02,0.24,0.12,-66.42,-12.69,0.3442594.00,-8.78,-2.85,2.74,0.17,-0.05,-0.05,-66.42,-12.69,0.3442645.00,-9.08,-2.88,1.90,0.02,0.14,-0.21,-66.42,-12.69,0.3442697.00,-8.89,-3.16,2.00,-0.22,0.02,-0.04,-65.19,-11.11,1.5342748.00,-8.58,-3.79,2.90,0.00,-0.10,0.10,-65.19,-11.11,1.5342800.00,-8.94,-2.87,2.76,0.06,-0.02,0.03,-65.89,-10.75,0.5142851.00,-9.04,-3.02,3.25,-0.08,0.23,-0.26,-65.89,-10.75,0.5142903.00,-8.89,-3.25,1.75,-0.31,0.36,-0.20,-65.89,-10.75,0.5142954.00,-9.00,-3.10,2.20,-0.03,-0.10,0.14,-66.42,-9.87,1.7043006.00,-8.83,-3.24,2.42,-0.02,-0.17,0.11,-66.42,-9.87,1.7043057.00,-8.96,-3.07,2.64,0.04,0.03,-0.06,-66.59,-11.46,2.2143109.00,-9.09,-2.83,2.71,0.03,0.06,-0.08,-66.59,-11.46,2.2143160.00,-9.11,-2.56,3.20,0.15,0.01,-0.06,-66.42,-10.58,2.0443212.00,-9.18,-2.96,3.03,-0.05,0.04,-0.02,-66.42,-10.58,2.0443263.00,-8.55,-3.94,1.64,-0.11,0.01,0.02,-66.42,-10.58,2.0443315.00,-8.84,-3.28,1.54,-0.03,-0.07,0.11,-65.72,-10.93,5.4443366.00,-8.91,-3.31,2.31,0.01,-0.07,-0.00,-65.72,-10.93,5.4443418.00,-8.90,-3.29,2.15,0.03,0.03,-0.04,-66.95,-10.75,2.5543469.00,-10.64,-2.44,0.99,0.37,-0.16,0.55,-66.95,-10.75,2.5543521.00,-9.64,-1.01,1.41,0.06,-0.32,0.41,-66.95,-10.75,2.5543572.00,-7.15,-1.57,2.01,-0.14,-0.19,-0.27,-65.89,-12.16,2.2143624.00,-8.77,-4.45,4.62,0.30,-0.01,-0.42,-65.89,-12.16,2.2143675.00,-7.58,-2.05,2.11,0.09,-0.04,0.02,-66.77,-10.93,2.3843727.00,-9.97,-2.81,1.52,-0.01,0.09,0.13,-66.77,-10.93,2.3843778.00,-8.91,-3.05,3.53,0.04,-0.04,0.04,-66.77,-10.93,2.3843830.00,-8.91,-3.14,2.42,0.00,-0.02,0.07,-65.19,-11.46,1.1943881.00,-8.83,-2.88,2.96,0.07,0.02,0.07,-65.19,-11.46,1.1943933.00,-9.10,-2.77,2.45,-0.04,0.06,0.05,-66.24,-11.81,3.9143985.00,-8.97,-2.93,2.72,-0.09,0.06,0.03,-66.24,-11.81,3.9144036.00,-9.10,-2.00,2.99,-0.01,0.17,-0.00,-67.30,-11.46,2.2144087.00,-9.14,-3.57,1.98,-0.24,0.45,-0.38,-67.30,-11.46,2.2144139.00,-9.33,-2.51,1.78,-0.21,0.04,0.02,-67.30,-11.46,2.2144191.00,-9.09,-2.95,2.30,0.03,-0.26,0.13,-66.24,-11.46,4.2544242.00,-8.54,-3.88,3.10,0.07,-0.30,-0.34,-66.24,-11.46,4.2544294.00,-8.57,-3.79,2.65,0.09,0.33,0.03,-66.07,-10.23,2.0444345.00,-9.21,-2.49,1.54,-0.18,0.31,0.06,-66.07,-10.23,2.0444397.00,-8.90,-3.10,2.06,-0.09,-0.10,0.07,-66.07,-10.23,2.0444448.00,-8.70,-3.44,1.45,0.05,-0.09,0.06,-66.07,-11.64,3.7444500.00,-9.03,-2.57,3.15,0.20,-0.01,-0.16,-66.07,-11.64,3.7444551.00,-9.18,-3.24,1.19,-0.02,0.24,-0.22,-66.24,-9.70,2.2144603.00,-8.85,-3.61,0.90,-0.10,0.02,-0.01,-66.24,-9.70,2.2144654.00,-8.55,-3.09,1.97,-0.06,-0.07,0.08,-66.95,-11.46,4.5944706.00,-9.82,-2.30,2.80,0.04,0.05,0.11,-66.95,-11.46,4.5944758.00,-9.09,-2.48,2.09,0.04,0.18,-0.15,-66.95,-11.46,4.5944809.00,-8.95,-3.31,0.55,-0.09,0.17,-0.17,-67.47,-10.23,4.0844861.00,-8.92,-2.88,1.02,-0.23,0.02,0.14,-67.47,-10.23,4.0844912.00,-9.01,-2.54,2.25,0.09,0.03,-0.08,-65.72,-10.93,4.0844964.00,-9.38,-3.58,1.52,0.05,0.03,-0.26,-65.72,-10.93,4.0845015.00,-8.31,-3.26,2.91,-0.14,-0.03,0.03,-65.72,-10.93,4.0845067.00,-9.81,-3.61,1.73,-0.18,0.16,0.19,-66.95,-10.40,4.2545118.00,-9.03,-3.08,1.42,0.03,0.11,0.12,-66.95,-10.40,4.2545170.00,-9.09,-3.64,1.54,0.01,0.16,-0.30,-66.42,-9.87,5.7745222.00,-9.06,-3.45,1.49,-0.22,0.22,-0.18,-66.42,-9.87,5.7745273.00,-8.85,-4.18,1.37,-0.14,-0.07,0.07,-66.42,-9.87,5.7745325.00,-8.96,-3.42,1.63,0.04,-0.18,0.19,-66.59,-11.81,6.6245377.00,-9.13,-2.60,2.08,0.11,-0.03,0.01,-66.59,-11.81,6.6245428.00,-9.00,-3.05,1.27,-0.11,0.33,-0.34,-66.59,-10.05,4.9345480.00,-9.99,-3.17,0.54,0.01,-0.14,-0.06,-66.59,-10.05,4.9345531.00,-8.76,-3.34,1.70,-0.01,0.02,0.02,-67.30,-8.64,6.2845583.00,-8.53,-3.54,2.18,0.02,0.08,0.17,-67.30,-8.64,6.2845635.00,-8.98,-3.61,1.05,-0.07,0.16,0.04,-67.30,-8.64,6.2845686.00,-8.89,-3.02,1.16,-0.12,0.26,-0.07,-66.24,-9.34,6.6245738.00,-9.55,-3.68,1.32,0.10,-0.22,-0.14,-66.24,-9.34,6.6245790.00,-8.25,-4.38,2.01,0.03,-0.50,0.05,-66.24,-9.34,6.6245841.00,-11.17,-0.95,2.19,-0.08,0.14,0.54,-66.59,-9.70,5.6145893.00,-9.06,-3.67,1.85,0.02,-0.11,-0.09,-66.59,-9.70,5.6145944.00,-9.22,-2.81,1.13,0.08,-0.07,-0.02,-68.00,-11.46,5.9445996.00,-8.35,-3.49,2.53,-0.04,-0.29,-0.17,-68.00,-11.46,5.9446048.00,-8.53,-3.70,2.29,-0.13,0.12,0.04,-68.00,-10.75,4.9346099.00,-10.69,-1.58,1.43,-0.14,0.22,0.30,-68.00,-10.75,4.9346151.00,-9.17,-3.36,1.29,-0.07,0.16,-0.04,-68.00,-10.75,4.9346203.00,-8.76,-2.40,1.64,-0.04,0.18,-0.25,-66.95,-11.46,6.9646254.00,-9.00,-2.83,0.20,-0.08,0.31,-0.34,-66.95,-11.46,6.9646306.00,-8.91,-4.01,-0.70,-0.03,0.07,-0.16,-68.00,-8.64,7.9846358.00,-8.10,-4.20,1.64,0.03,-0.47,0.13,-68.00,-8.64,7.9846409.00,-11.24,-1.89,3.69,-0.05,0.03,0.34,-68.00,-8.64,7.9846461.00,-8.95,-3.33,0.11,-0.17,0.23,-0.02,-68.00,-12.52,7.3046513.00,-12.15,-2.11,-1.06,0.47,-0.55,-0.11,-68.00,-12.52,7.3046564.00,-8.63,-5.97,1.75,0.30,-1.57,-0.48,-66.77,-9.87,5.1046616.00,-6.27,-5.17,4.27,-0.09,-1.31,0.33,-66.77,-9.87,5.1046668.00,-6.62,-2.49,2.68,0.08,-0.08,0.74,-66.77,-9.87,5.1046719.00,-8.76,-3.59,3.71,0.44,-0.56,0.45,-67.30,-10.75,0.8546771.00,-11.23,-0.36,2.86,0.48,-0.69,0.44,-67.30,-10.75,0.8546824.00,-6.70,-1.94,5.74,0.20,-0.43,0.14,-67.47,-12.69,-5.1046878.00,-10.31,-3.11,1.95,0.10,0.29,-0.06,-67.47,-12.69,-5.1046928.00,-7.80,-3.14,4.35,0.11,-0.28,-0.01,-66.59,-13.93,-3.5746978.00,-9.82,-1.53,2.92,0.10,0.33,0.22,-66.59,-13.93,-3.5747028.00,-8.58,-2.34,3.56,-0.07,0.02,0.01,-66.59,-13.93,-3.5747078.00,-10.03,-2.02,2.51,-0.06,0.29,0.04,-66.77,-14.46,-3.4047129.00,-8.97,-2.33,3.36,0.10,0.05,-0.02,-66.77,-14.46,-3.4047179.00,-8.82,-2.27,1.87,-0.32,0.17,-0.09,-66.59,-15.34,-1.5347229.00,-8.70,-2.36,3.86,0.11,-0.23,0.19,-66.59,-15.34,-1.5347279.00,-9.24,-2.00,3.69,-0.07,0.10,-0.12,-66.59,-15.34,-1.5347329.00,-8.28,-3.38,2.58,-0.47,0.49,-0.46,-68.00,-14.28,-2.8947379.00,-8.96,-2.10,2.13,0.12,-0.07,-0.02,-68.00,-14.28,-2.8947430.00,-9.11,-2.76,2.76,0.17,-0.29,0.12,-67.12,-14.81,-1.3647480.00,-8.45,-2.84,3.80,-0.27,-0.03,-0.19,-67.12,-14.81,-1.3647530.00,-7.89,-3.45,3.32,-0.22,0.17,-0.00,-67.12,-14.81,-1.3647580.00,-9.00,-2.21,2.25,-0.06,0.13,0.09,-66.42,-14.46,-2.0447630.00,-9.14,-1.84,3.92,0.02,-0.01,-0.13,-66.42,-14.46,-2.0447680.00,-8.88,-2.61,2.18,-0.18,0.19,-0.10,-67.65,-14.28,-1.5347731.00,-8.63,-3.18,2.27,-0.21,0.01,0.01,-67.65,-14.28,-1.5347781.00,-8.98,-2.61,3.06,0.08,-0.05,0.08,-67.65,-14.28,-1.5347831.00,-8.99,-2.46,3.29,0.09,-0.02,-0.02,-67.65,-14.28,-0.1747882.00,-8.99,-2.57,1.41,0.03,0.25,-0.11,-67.65,-14.28,-0.1747932.00,-8.84,-3.05,2.56,-0.14,0.13,-0.08,-67.47,-12.69,-0.3447982.00,-8.92,-2.76,2.02,-0.01,-0.01,0.04,-67.47,-12.69,-0.3448033.00,-8.81,-2.97,2.96,0.09,0.08,-0.07,-67.47,-12.69,-0.3448083.00,-9.18,-3.42,2.24,0.28,0.08,-0.09,-67.12,-14.10,-0.3448133.00,-9.12,-1.48,1.64,0.03,-0.36,1.17,-67.12,-14.10,-0.3448183.00,-8.27,-0.06,2.40,-0.34,-0.70,0.41,-67.65,-17.81,-1.1948234.00,-5.19,-2.57,4.19,-0.17,-0.33,-0.84,-67.65,-17.81,-1.1948284.00,-13.49,-8.21,7.20,0.21,0.21,-0.79,-67.65,-17.81,-1.1948334.00,-6.58,-3.54,4.20,0.32,-0.48,-0.10,-66.59,-14.28,-2.2148384.00,-9.91,-1.98,2.92,0.10,0.31,0.26,-66.59,-14.28,-2.2148435.00,-9.27,-2.21,3.28,-0.06,0.11,0.10,-67.12,-14.10,-1.3648485.00,-9.01,-2.61,2.25,-0.30,0.13,-0.03,-67.12,-14.10,-1.3648535.00,-8.57,-3.61,3.29,0.01,-0.21,0.16,-67.12,-14.10,-1.3648586.00,-8.85,-2.47,3.13,0.37,-0.27,0.19,-68.18,-14.81,-3.0648636.00,-8.75,-2.01,4.36,0.12,0.07,-0.32,-68.18,-14.81,-3.0648686.00,-8.95,-1.62,4.23,-0.23,0.32,-0.58,-68.18,-14.10,-1.7048736.00,-8.85,-3.02,2.15,-0.11,0.06,-0.19,-68.18,-14.10,-1.7048787.00,-8.36,-3.12,3.54,-0.05,-0.28,0.00,-68.18,-14.10,-1.7048837.00,-9.34,-2.42,2.27,-0.23,0.24,0.07,-68.35,-13.22,-2.2148887.00,-8.83,-2.57,2.04,-0.46,0.36,-0.08,-68.35,-13.22,-2.2148938.00,-8.80,-2.96,2.92,0.09,-0.13,0.11,-66.95,-13.57,-0.8548988.00,-8.97,-2.79,2.95,0.27,-0.26,0.08,-66.95,-13.57,-0.8549038.00,-9.38,-2.57,3.20,0.06,0.13,-0.20,-66.95,-13.57,-0.8549089.00,-9.10,-2.84,2.96,-0.18,0.28,-0.21,-67.12,-13.40,-0.3449139.00,-8.95,-3.49,2.09,-0.28,0.07,0.02,-67.12,-13.40,-0.3449189.00,-8.95,-2.76,2.11,-0.07,-0.14,0.16,-66.42,-12.34,0.0049240.00,-8.62,-2.96,3.14,0.08,0.20,-0.12,-66.42,-12.34,0.0049290.00,-8.98,-2.79,1.00,0.22,0.11,-0.07,-66.42,-12.34,0.0049340.00,-10.83,-4.43,2.86,0.58,-0.68,0.41,-68.53,-12.34,-0.6849391.00,-9.43,0.09,2.81,-0.21,-0.18,0.61,-68.53,-12.34,-0.6849441.00,-5.91,-1.50,4.00,-0.18,-0.26,-0.26,-67.12,-14.46,-2.0449492.00,-8.88,-4.36,3.86,0.22,-0.01,-0.81,-67.12,-14.46,-2.0449542.00,-6.72,-1.56,3.21,0.12,-0.20,0.03,-67.12,-14.46,-2.0449592.00,-10.29,-3.30,2.22,-0.19,0.35,0.08,-67.30,-13.22,-3.5749643.00,-8.77,-3.04,3.84,0.03,0.04,0.24,-67.30,-13.22,-3.5749693.00,-8.94,-2.61,2.55,-0.03,0.14,0.02,-66.77,-13.05,-1.0249743.00,-9.32,-2.23,3.16,0.00,0.05,-0.28,-66.77,-13.05,-1.0249794.00,-9.02,-3.12,1.47,-0.28,0.28,-0.32,-66.77,-13.05,-1.0249844.00,-8.57,-3.23,2.68,-0.15,-0.18,0.02,-67.30,-11.46,-0.1749894.00,-8.14,-3.60,3.62,-0.06,0.01,0.07,-67.30,-11.46,-0.1749945.00,-9.39,-2.30,2.80,0.02,0.23,-0.08,-68.35,-12.87,-0.5149995.00,-8.84,-2.95,2.28,-0.25,0.13,-0.07,-68.35,-12.87,-0.5150046.00,-8.53,-3.88,2.45,-0.15,-0.05,0.09,-68.35,-12.87,-0.5150096.00,-9.18,-2.67,2.20,0.24,-0.16,0.08,-67.47,-11.99,-0.6850146.00,-9.52,-2.96,2.92,0.20,-0.23,-0.13,-67.47,-11.99,-0.6850197.00,-8.39,-3.63,2.98,-0.11,-0.39,-0.22,-67.30,-13.22,-0.5150247.00,-8.42,-3.26,3.03,-0.05,-0.17,0.04,-67.30,-13.22,-0.5150297.00,-8.40,-2.97,3.97,0.19,0.06,0.24,-67.47,-13.75,-2.7250348.00,-10.51,-1.74,2.07,0.04,0.45,0.26,-67.47,-13.75,-2.7250398.00,-9.36,-2.41,2.43,-0.14,-0.07,-0.04,-67.47,-13.75,-2.7250449.00,-8.84,-2.94,2.99,0.03,-0.05,0.03,-68.35,-14.28,-1.8750499.00,-8.82,-3.04,0.91,-0.05,0.27,-0.26,-68.35,-14.28,-1.8750549.00,-9.56,-2.61,2.43,0.06,-0.26,-0.06,-68.35,-14.28,-1.8750600.00,-8.47,-2.52,2.76,-0.16,-0.20,0.32,-67.82,-13.75,0.3450650.00,-8.65,-2.63,4.01,-0.05,0.13,0.46,-67.82,-13.75,0.3450701.00,-9.00,-2.50,3.65,-0.10,0.26,-0.20,-67.47,-15.16,-0.6850751.00,-8.68,-2.71,2.57,-0.14,0.50,-0.49,-67.47,-15.16,-0.6850802.00,-8.91,-3.41,0.86,0.19,-0.01,-0.28,-68.35,-10.40,0.1750852.00,-8.21,-3.60,2.66,0.09,-0.50,0.07,-68.35,-10.40,0.1750902.00,-9.83,-1.77,3.05,-0.10,0.24,0.37,-68.35,-10.40,0.1750953.00,-9.25,-2.86,1.96,-0.26,0.15,-0.03,-68.53,-13.05,0.6851003.00,-9.41,-2.45,1.63,-0.13,-0.04,0.03,-68.53,-13.05,0.6851054.00,-7.97,-3.55,3.77,0.04,-0.20,-0.26,-68.53,-13.05,0.6851104.00,-10.41,-2.13,1.79,-0.03,0.40,0.11,-66.77,-12.34,0.3451155.00,-9.27,-2.21,0.74,-0.29,0.22,-0.05,-66.77,-12.34,0.3451205.00,-8.83,-3.63,2.63,0.02,-0.16,0.10,-67.82,-13.05,2.0451256.00,-9.15,-2.84,1.79,0.20,-0.22,0.12,-67.82,-13.05,2.0451306.00,-9.10,-3.08,1.76,-0.01,0.26,-0.28,-67.82,-13.05,2.0451357.00,-9.19,-2.98,1.49,-0.37,0.31,-0.18,-68.18,-11.28,2.0451407.00,-8.85,-3.75,1.09,-0.28,-0.02,0.14,-68.18,-11.28,2.0451458.00,-9.06,-3.62,2.38,0.01,-0.01,-0.01,-66.77,-10.58,2.7251508.00,-8.99,-3.14,2.08,-0.17,0.24,-0.18,-66.77,-10.58,2.7251559.00,-8.76,-3.28,0.50,0.04,0.03,-0.20,-67.82,-11.64,3.4051609.00,-9.83,-3.37,0.98,0.35,-0.66,0.10,-67.82,-11.64,3.4051660.00,-8.10,-3.78,2.89,0.21,-0.64,0.06,-67.82,-11.64,3.4051710.00,-8.47,-3.13,3.31,0.19,-0.30,0.29,-67.82,-10.93,0.0051761.00,-10.35,-2.40,1.75,-0.14,0.52,0.24,-67.82,-10.93,0.0051812.00,-9.26,-2.39,1.32,-0.21,0.09,0.25,-67.82,-10.93,0.0051862.00,-10.31,-2.03,3.57,-0.08,0.03,-0.13,-68.18,-13.05,1.0251913.00,-8.55,-2.87,1.83,-0.22,0.14,-0.59,-68.18,-13.05,1.0251963.00,-8.12,-3.72,2.36,-0.19,0.39,-0.30,-68.35,-11.81,1.1952014.00,-8.70,-3.85,1.86,-0.09,0.50,-0.02,-68.35,-11.81,1.1952064.00,-8.92,-3.46,1.87,-0.16,0.55,0.18,-67.47,-12.34,2.7252115.00,-9.01,-3.33,0.50,-0.22,0.29,-0.01,-67.47,-12.34,2.7252165.00,-9.07,-3.53,-0.90,0.20,-0.00,-0.33,-67.47,-12.34,2.7252216.00,-11.11,-3.60,0.48,0.51,-0.63,-0.19,-66.77,-9.87,5.1052266.00,-8.74,-3.10,2.46,0.14,-0.83,0.51,-66.77,-9.87,5.1052317.00,-7.11,-2.79,2.63,0.01,-0.03,0.37,-66.77,-9.87,5.1052367.00,-8.59,-2.32,1.18,0.22,-0.24,0.07,-68.18,-11.28,1.7052418.00,-9.28,-3.25,4.68,0.51,-0.30,-0.07,-68.18,-11.28,1.7052469.00,-8.84,-3.10,1.24,0.20,-0.05,-0.05,-66.95,-13.93,-0.8552519.00,-8.42,-2.84,3.64,0.23,-0.20,0.02,-66.95,-13.93,-0.8552570.00,-9.35,-2.60,2.62,-0.04,0.18,-0.00,-67.47,-14.46,-1.3652620.00,-8.67,-2.95,3.26,0.01,-0.11,0.06,-67.47,-14.46,-1.3652671.00,-9.03,-2.75,3.41,-0.20,0.25,-0.00,-67.47,-14.46,-1.3652722.00,-10.28,-2.27,1.96,-0.03,0.22,0.23,-68.35,-13.93,-0.5152772.00,-8.94,-2.92,2.29,0.01,0.00,-0.03,-68.35,-13.93,-0.5152823.00,-9.16,-2.65,2.88,0.22,-0.09,-0.02,-66.95,-13.22,-0.8552873.00,-9.29,-2.55,2.37,-0.16,0.15,-0.29,-66.95,-13.22,-0.8552924.00,-8.81,-3.43,2.15,-0.17,-0.02,0.01,-66.95,-13.22,-0.8552975.00,-8.89,-2.86,2.14,0.01,-0.11,0.16,-67.82,-11.99,0.6853025.00,-9.24,-2.28,3.02,-0.06,0.15,-0.11,-67.82,-11.99,0.6853076.00,-9.14,-2.80,0.77,-0.17,0.26,-0.31,-68.35,-12.87,0.8553126.00,-7.90,-4.11,3.08,0.03,-0.43,-0.09,-68.35,-12.87,0.8553177.00,-8.23,-3.74,3.38,0.18,-0.09,0.31,-68.35,-12.87,0.8553228.00,-9.09,-2.45,2.51,-0.14,0.29,-0.11,-68.53,-13.05,0.6853278.00,-8.88,-3.19,0.90,-0.25,0.32,-0.14,-68.53,-13.05,0.6853329.00,-8.79,-2.89,0.11,-0.16,-0.07,0.16,-68.53,-12.34,1.7053379.00,-8.53,-3.41,2.36,-0.15,-0.21,-0.26,-68.53,-12.34,1.7053430.00,-8.33,-3.96,3.58,-0.11,0.10,-0.02,-68.53,-12.34,1.7053481.00,-9.18,-2.86,0.38,-0.23,0.28,0.02,-66.07,-11.64,2.0453531.00,-9.03,-3.02,1.42,-0.43,0.15,-0.08,-66.07,-11.64,2.0453582.00,-8.86,-3.40,2.21,0.04,0.01,0.04,-68.35,-13.57,2.2153633.00,-9.06,-2.91,1.28,0.32,-0.22,0.04,-68.35,-13.57,2.2153683.00,-9.45,-2.22,3.87,0.10,0.09,-0.20,-68.35,-13.57,2.2153734.00,-9.02,-3.91,0.33,-0.22,0.31,-0.27,-66.77,-12.69,3.0653784.00,-8.51,-3.98,2.14,-0.11,-0.26,0.08,-66.77,-12.69,3.0653835.00,-8.16,-3.42,3.33,-0.04,0.05,0.17,-66.77,-11.64,1.0253886.00,-9.11,-3.17,1.85,-0.01,0.05,-0.00,-66.77,-11.64,1.0253937.00,-9.95,-3.13,1.95,0.03,0.18,-0.25,-66.77,-11.64,1.0253987.00,-8.99,-6.21,-0.79,-0.36,0.41,0.12,-66.95,-11.81,3.9154038.00,-9.81,-0.50,0.59,-0.13,-0.40,0.59,-66.95,-11.81,3.9154089.00,-7.52,-3.31,2.05,-0.05,-0.51,-0.20,-67.65,-12.87,3.5754139.00,-9.16,-6.23,3.52,0.37,-0.48,-0.46,-67.65,-12.87,3.5754190.00,-8.28,-1.61,2.71,0.60,-0.20,0.05,-67.65,-12.87,3.5754241.00,-9.61,-2.54,0.97,0.04,0.02,0.12,-67.12,-12.69,1.0254291.00,-8.48,-3.94,3.15,0.07,-0.12,0.11,-67.12,-12.69,1.0254342.00,-9.13,-2.61,1.50,0.00,0.20,0.08,-68.35,-12.87,0.1754393.00,-9.48,-2.37,3.05,-0.03,0.17,-0.27,-68.35,-12.87,0.1754444.00,-9.01,-3.40,1.53,-0.23,0.13,-0.08,-67.47,-12.34,1.0254494.00,-8.81,-3.56,1.94,-0.09,-0.16,0.19,-67.47,-12.34,1.0254545.00,-9.04,-2.90,2.68,0.07,-0.10,0.10,-67.47,-12.34,1.0254596.00,-9.23,-2.70,2.68,-0.01,0.21,-0.20,-66.07,-12.34,0.6854647.00,-9.07,-3.09,0.54,-0.01,0.07,-0.16,-66.07,-12.34,0.6854697.00,-8.87,-3.44,1.94,-0.00,-0.36,-0.07,-66.07,-12.34,0.6854748.00,-8.13,-4.66,3.03,-0.03,0.02,0.09,-67.12,-10.93,2.0454799.00,-9.35,-2.52,0.85,-0.05,0.25,0.16,-67.12,-10.93,2.0454849.00,-9.00,-3.21,2.60,-0.01,0.22,-0.22,-68.18,-11.99,2.7254900.00,-9.30,-3.32,2.40,-0.14,-0.06,-0.02,-68.18,-11.99,2.7254951.00,-9.01,-3.08,1.10,-0.10,-0.10,0.16,-66.77,-11.64,2.7255001.00,-8.86,-3.19,2.48,-0.02,0.12,-0.13,-66.77,-11.64,2.7255052.00,-9.28,-3.42,0.07,0.06,0.08,-0.19,-66.77,-11.64,2.7255103.00,-7.62,-3.76,3.81,0.01,-0.25,0.04,-66.95,-11.81,2.8955154.00,-10.61,-2.31,1.20,-0.10,0.41,0.12,-66.95,-11.81,2.8955205.00,-9.15,-3.50,1.37,-0.35,0.23,-0.08,-69.05,-10.40,2.2155255.00,-9.01,-3.20,1.94,-0.03,-0.09,0.05,-69.05,-10.40,2.2155306.00,-8.86,-2.87,1.26,0.11,-0.11,0.09,-69.05,-10.40,2.2155357.00,-9.32,-2.75,1.98,0.08,0.04,-0.13,-67.12,-10.93,3.4055408.00,-9.26,-3.90,0.63,-0.12,0.22,-0.23,-67.12,-10.93,3.4055459.00,-9.88,-3.35,0.38,0.03,-0.03,0.26,-66.77,-10.93,3.4055509.00,-7.84,-2.76,2.69,0.13,-0.48,0.44,-66.77,-10.93,3.4055560.00,-8.68,-2.36,1.77,0.08,-0.46,-0.24,-66.77,-10.93,3.4055611.00,-7.30,-4.69,4.97,0.64,-0.51,-0.40,-67.65,-13.57,1.5355662.00,-10.92,-2.88,1.50,0.27,0.38,0.05,-67.65,-13.57,1.5355713.00,-8.80,-3.04,1.03,-0.20,-0.02,0.06,-67.30,-12.52,1.5355763.00,-8.95,-3.47,2.52,-0.21,0.20,0.06,-67.30,-12.52,1.5355814.00,-8.78,-3.09,0.72,0.02,0.14,0.05,-67.30,-12.52,1.5355865.00,-9.30,-2.18,2.66,0.08,0.01,-0.23,-66.42,-13.05,1.7055916.00,-9.24,-3.21,2.18,-0.19,-0.01,-0.20,-66.42,-13.05,1.7055967.00,-8.86,-3.29,2.19,-0.05,-0.09,0.16,-68.18,-11.99,2.7256017.00,-9.09,-3.23,1.64,0.06,-0.04,0.06,-68.18,-11.99,2.7256068.00,-8.10,-3.25,2.69,-0.00,0.53,-0.49,-68.18,-11.99,2.7256119.00,-8.45,-4.07,1.13,0.25,0.38,-0.46,-67.65,-11.81,3.5756170.00,-9.33,-3.01,0.00,0.83,-0.96,0.35,-67.65,-11.81,3.5756221.00,-10.95,-1.30,4.78,0.25,-0.64,0.11,-67.12,-13.05,0.6856272.00,-7.43,-3.16,4.14,-0.54,-0.08,0.04,-67.12,-13.05,0.6856322.00,-8.36,-4.10,1.18,-0.30,0.74,0.03,-68.35,-11.46,1.5356373.00,-9.35,-3.31,0.69,-0.21,0.35,0.13,-68.35,-11.46,1.5356424.00,-8.92,-2.92,2.35,-0.16,-0.17,0.14,-68.35,-11.46,1.5356475.00,-8.97,-3.07,1.83,-0.05,0.15,-0.13,-66.59,-11.11,2.2156526.00,-9.99,-3.37,0.41,-0.05,-0.04,-0.18,-66.59,-11.11,2.2156577.00,-7.32,-4.06,3.06,-0.20,-0.14,0.03,-66.59,-11.11,2.2156627.00,-9.23,-3.29,0.55,-0.13,0.30,0.13,-67.12,-10.58,1.7056678.00,-8.86,-3.41,1.13,-0.04,0.02,0.01,-67.12,-10.58,1.7056729.00,-9.65,-3.01,0.43,-0.06,0.25,-0.27,-67.82,-10.93,4.0856780.00,-9.20,-3.81,2.28,-0.10,-0.06,-0.07,-67.82,-10.93,4.0856831.00,-8.88,-3.33,1.88,0.03,-0.13,0.15,-67.65,-9.70,4.5956882.00,-9.08,-2.54,1.30,0.06,0.07,0.04,-67.65,-9.70,4.5956933.00,-9.56,-4.28,-0.53,0.08,0.19,-0.00,-67.65,-9.70,4.5956984.00,-7.61,-3.71,2.58,0.22,-0.61,0.12,-66.59,-11.11,3.9157035.00,-8.42,-3.76,0.25,0.08,-0.59,0.20,-66.59,-11.11,3.9157086.00,-6.92,-5.87,5.42,0.68,-0.56,-0.82,-68.88,-10.93,1.0257137.00,-10.21,-2.76,1.73,0.20,0.34,0.15,-68.88,-10.93,1.0257188.00,-8.71,-3.56,2.51,-0.05,-0.17,0.12,-68.88,-10.93,1.0257238.00,-10.31,-2.38,3.22,0.04,0.09,0.34,-68.00,-12.52,-0.1757289.00,-8.97,-2.64,2.47,-0.02,0.17,-0.20,-68.00,-12.52,-0.1757340.00,-8.89,-3.71,0.55,-0.13,0.27,-0.30,-68.70,-11.11,2.2157391.00,-9.11,-2.90,1.24,-0.22,-0.04,0.15,-68.70,-11.11,2.2157442.00,-9.01,-2.41,2.38,-0.09,-0.08,0.15,-68.70,-11.11,2.2157493.00,-8.97,-3.60,0.37,0.09,0.24,-0.23,-67.82,-11.28,2.7257544.00,-8.71,-3.52,2.54,-0.08,-0.33,-0.25,-67.82,-11.28,2.7257595.00,-8.11,-4.23,2.81,-0.32,0.04,0.00,-67.65,-11.11,1.5357645.00,-10.73,-1.86,1.69,-0.17,0.39,0.21,-67.65,-11.11,1.5357696.00,-9.07,-3.01,0.48,-0.04,0.01,0.05,-67.65,-11.11,1.5357747.00,-9.56,-2.77,2.10,0.10,0.11,-0.25,-66.59,-11.11,3.9157798.00,-9.09,-4.24,1.55,-0.25,0.25,-0.37,-66.59,-11.11,3.9157849.00,-8.78,-4.02,0.67,-0.32,-0.17,0.32,-67.65,-10.40,3.9157900.00,-8.93,-2.25,1.77,0.69,-0.75,0.71,-67.65,-10.40,3.9157951.00,-9.78,-2.92,1.48,0.07,-0.00,-0.26,-67.65,-10.40,3.9158002.00,-8.67,-2.94,2.93,0.06,-0.19,-0.52,-67.47,-12.34,1.7058052.00,-8.35,-4.32,1.74,-0.27,0.33,-0.13,-67.47,-12.34,1.7058103.00,-8.81,-3.58,1.74,-0.07,0.26,0.14,-67.12,-10.23,2.7258154.00,-9.25,-3.57,1.02,-0.14,0.26,0.08,-67.12,-10.23,2.7258205.00,-9.12,-3.41,0.47,-0.23,0.27,-0.07,-68.00,-12.52,3.9158256.00,-9.17,-3.29,0.83,-0.23,0.10,-0.00,-68.00,-12.52,3.9158307.00,-8.83,-3.91,1.15,0.05,-0.10,0.10,-68.00,-12.52,3.9158358.00,-9.05,-2.86,1.65,0.22,-0.15,0.05,-66.59,-11.46,3.5758409.00,-9.78,-2.75,1.61,-0.02,0.18,-0.23,-66.59,-11.46,3.5758460.00,-9.30,-3.65,2.27,-0.12,0.09,-0.26,-66.59,-11.46,3.5758511.00,-11.29,-2.80,-0.10,0.14,-0.33,0.01,-68.00,-11.81,3.5758562.00,-7.44,-5.46,2.94,0.32,-1.00,-0.24,-68.00,-11.81,3.5758612.00,-8.31,-5.72,3.58,0.36,-0.89,0.14,-67.65,-9.70,2.8958663.00,-6.78,-3.32,4.60,0.54,-0.26,0.11,-67.65,-9.70,2.8958714.00,-6.59,-4.36,2.52,0.72,-0.39,-0.10,-67.47,-9.87,-2.3858765.00,-8.69,-3.29,2.00,0.28,0.28,-0.14,-67.47,-9.87,-2.3858816.00,-10.03,-0.60,-1.91,0.01,-0.04,-0.02,-67.47,-9.87,-2.3858867.00,-8.24,-3.64,3.94,0.47,-0.24,-0.24,-67.65,-11.11,-3.2358918.00,-10.76,-2.32,0.53,0.29,0.11,0.53,-67.65,-11.11,-3.2358969.00,-8.50,-5.64,7.07,0.74,-1.03,0.29,-65.72,-13.05,-3.4059020.00,-8.97,-1.56,4.07,0.52,0.06,0.11,-65.72,-13.05,-3.4059071.00,-7.57,-1.82,4.58,0.43,0.23,-0.14,-65.72,-13.05,-3.4059122.00,-9.57,-1.29,1.02,0.08,0.76,-0.13,-66.07,-11.99,-4.7659173.00,-11.17,-2.36,2.72,-0.22,0.42,0.05,-66.07,-11.99,-4.7659224.00,-8.41,-3.52,2.32,-0.54,0.72,-0.23,-65.19,-12.87,-1.1959275.00,-8.98,-3.43,2.31,0.13,0.19,0.06,-65.19,-12.87,-1.1959326.00,-9.07,-3.28,2.22,-0.17,0.23,0.06,-65.19,-12.87,1.1959377.00,-9.85,-2.05,2.82,-0.15,0.05,0.19,-65.19,-12.87,1.1959428.00,-9.03,-2.41,2.79,-0.11,0.00,0.12,-65.19,-12.87,1.1959479.00,-8.47,-3.29,1.48,-0.04,0.01,0.01,-66.42,-11.99,1.7059530.00,-9.14,-1.89,3.37,0.17,-0.03,-0.25,-66.42,-11.99,1.7059581.00,-8.77,-3.07,2.55,-0.26,0.43,-0.55,-66.42,-11.99,1.7059632.00,-8.77,-2.86,2.45,0.19,0.03,-0.13,-65.89,-10.75,2.5559683.00,-8.67,-3.67,1.44,0.23,-0.22,-0.08,-65.89,-10.75,2.5559734.00,-9.31,-2.13,4.36,0.20,-0.23,0.26,-66.59,-11.46,2.2159785.00,-9.20,-2.32,2.84,-0.37,0.15,-0.02,-66.59,-11.46,2.2159836.00,-9.35,-3.10,0.82,-0.13,0.36,-0.13,-67.30,-10.75,0.8559887.00,-7.71,-3.97,4.02,-0.06,-0.08,-0.05,-67.30,-10.75,0.8559938.00,-7.98,-3.82,3.51,0.08,0.24,0.36,-67.30,-10.75,0.8559989.00,-9.19,-2.57,1.23,-0.10,0.16,-0.20,-66.07,-13.40,2.3860040.00,-8.98,-3.66,2.21,-0.17,0.17,-0.23,-66.07,-13.40,2.3860091.00,-8.55,-3.78,1.74,0.00,-0.18,0.21,-67.12,-11.99,2.3860142.00,-9.24,-2.82,2.33,0.43,-0.34,0.20,-67.12,-11.99,2.3860193.00,-7.80,-3.40,4.00,-0.24,0.04,-0.34,-67.12,-11.99,2.3860244.00,-8.37,-4.61,2.20,-0.18,0.37,-0.07,-66.24,-10.40,1.8760296.00,-9.10,-2.68,1.24,-0.27,0.05,0.04,-66.24,-10.40,1.8760347.00,-9.01,-3.27,2.91,-0.00,0.01,-0.05,-66.59,-8.99,4.2560398.00,-9.05,-3.41,0.67,-0.02,0.26,-0.25,-66.59,-8.99,4.2560449.00,-8.58,-3.70,2.27,-0.12,-0.36,-0.13,-66.59,-8.99,4.2560500.00,-7.61,-3.96,3.61,-0.15,0.07,0.18,-66.42,-9.87,3.4060551.00,-9.05,-2.35,1.15,-0.05,0.13,0.03,-66.42,-9.87,3.4060602.00,-9.00,-3.89,2.62,0.02,0.04,-0.17,-66.95,-11.46,3.5760653.00,-9.58,-2.13,3.07,0.02,0.02,-0.09,-66.95,-11.46,3.5760704.00,-9.12,-4.68,0.65,-0.23,0.09,-0.25,-66.95,-11.46,3.5760755.00,-7.94,-3.95,3.05,0.01,0.08,0.10,-66.42,-10.23,4.4260806.00,-9.30,-2.72,2.23,-0.14,0.09,-0.02,-66.42,-10.23,4.4260857.00,-8.81,-3.93,1.35,-0.14,0.11,-0.08,-65.19,-10.75,5.2760908.00,-8.82,-3.50,1.67,0.05,-0.13,0.08,-65.19,-10.75,5.2760959.00,-8.87,-3.43,1.59,0.08,-0.09,-0.00,-65.19,-10.75,5.2761011.00,-9.64,-3.80,0.79,0.04,0.22,-0.26,-67.30,-10.05,5.9461062.00,-9.72,-4.94,1.15,0.10,0.10,0.10,-67.30,-10.05,5.9461113.00,-7.67,-2.49,3.34,0.55,-0.60,0.63,-65.89,-12.16,5.2761164.00,-8.32,-2.03,1.42,0.53,-0.39,0.22,-65.89,-12.16,5.2761215.00,-8.41,-3.56,4.11,0.56,-0.26,-0.25,-66.42,-11.64,4.0861266.00,-9.40,-2.45,2.12,0.09,0.00,-0.03,-66.42,-11.64,4.0861317.00,-8.99,-3.03,2.06,0.15,-0.21,0.06,-66.42,-11.64,4.0861368.00,-8.99,-3.00,2.72,-0.01,0.03,-0.03,-66.07,-11.64,2.3861420.00,-8.99,-2.68,2.49,-0.05,0.03,0.02,-66.07,-11.64,2.3861471.00,-8.71,-3.04,2.88,-0.06,0.05,0.01,-66.95,-11.46,2.2161522.00,-9.76,-2.32,2.25,-0.07,0.13,0.05,-66.95,-11.46,2.2161573.00,-8.94,-2.92,2.33,-0.04,-0.01,-0.04,-66.95,-11.46,2.2161624.00,-9.06,-2.67,2.74,-0.07,0.04,-0.10,-66.07,-13.40,3.4061675.00,-8.88,-3.06,1.82,-0.13,0.02,-0.04,-66.07,-13.40,3.4061726.00,-8.95,-3.03,2.32,-0.05,-0.02,0.04,-65.72,-11.64,3.0661778.00,-9.32,-4.20,2.62,0.14,-0.00,0.02,-65.72,-11.64,3.0661829.00,-8.34,-2.60,3.08,0.16,-0.57,0.20,-65.72,-11.64,3.0661880.00,-8.17,-0.87,1.45,-0.10,0.07,0.51,-66.42,-13.05,1.3661931.00,-8.12,-3.45,3.16,0.07,-0.13,-0.40,-66.42,-13.05,1.3661982.00,-9.54,-4.21,4.26,0.29,-0.26,-0.00,-65.72,-12.69,2.0462034.00,-9.22,-3.00,2.45,0.11,0.03,0.14,-65.72,-12.69,2.0462085.00,-8.69,-2.36,3.55,0.19,-0.08,0.19,-65.72,-12.69,2.0462136.00,-8.95,-1.96,2.55,-0.12,0.16,-0.18,-64.84,-13.93,1.5362187.00,-8.90,-3.16,1.52,-0.14,0.07,-0.29,-64.84,-13.93,1.5362238.00,-8.77,-2.72,3.04,0.03,-0.26,0.15,-65.72,-14.81,1.7062289.00,-8.96,-2.37,3.27,-0.15,-0.23,0.19,-65.72,-14.81,1.7062341.00,-9.00,-3.71,3.01,-0.33,0.12,-0.08,-65.72,-14.81,1.7062392.00,-8.00,-4.03,1.62,-0.51,0.92,-0.68,-65.72,-13.40,1.7062443.00,-8.57,-3.17,3.22,0.37,0.14,-0.26,-65.72,-13.40,1.7062494.00,-9.40,-2.44,2.11,0.60,-0.77,0.28,-66.24,-11.11,1.8762545.00,-10.25,-1.87,4.44,0.23,-0.40,0.20,-66.24,-11.11,1.8762597.00,-8.30,-2.81,2.64,-0.76,0.14,-0.35,-66.07,-10.58,1.0262648.00,-7.67,-4.36,2.89,-0.15,0.47,-0.03,-66.07,-10.58,1.0262699.00,-10.41,-3.30,1.84,-0.00,0.52,0.25,-66.07,-10.58,1.0262750.00,-8.86,-3.80,1.78,-0.18,0.01,-0.08,-65.36,-11.28,5.1062801.00,-8.71,-3.29,2.33,-0.01,-0.11,0.10,-65.36,-11.28,5.1062853.00,-9.30,-2.76,2.48,0.23,-0.20,0.03,-65.89,-12.52,4.5962904.00,-9.20,-3.28,2.18,0.06,0.17,-0.29,-65.89,-12.52,4.5962955.00,-9.17,-3.14,1.19,-0.18,0.21,-0.12,-65.89,-12.52,4.5963006.00,-9.36,-2.61,2.06,-0.34,-0.09,0.08,-65.89,-11.81,4.2563058.00,-8.38,-3.43,2.68,-0.14,-0.00,0.13,-65.89,-11.81,4.2563109.00,-8.91,-2.96,1.49,0.04,0.02,0.03,-65.01,-10.58,5.4463160.00,-9.12,-2.55,1.30,0.11,0.10,-0.13,-65.01,-10.58,5.4463211.00,-8.74,-4.20,1.17,0.20,0.12,-0.16,-65.01,-10.58,5.4463262.00,-8.69,-4.64,0.06,0.50,-0.33,0.06,-65.89,-10.75,4.2563314.00,-9.06,-1.20,2.63,0.19,-0.51,0.47,-65.89,-10.75,4.2563365.00,-8.17,-2.67,1.89,-0.32,-0.15,0.26,-66.77,-12.69,1.7063416.00,-6.78,-3.57,3.11,0.19,-0.52,-0.28,-66.77,-12.69,1.7063467.00,-10.46,-3.97,5.19,0.67,-0.43,0.05,-66.77,-12.69,1.7063518.00,-7.61,-2.00,2.70,0.18,-0.11,0.07,-65.72,-13.05,1.3663570.00,-9.11,-2.86,2.19,0.01,0.14,0.11,-65.72,-13.05,1.3663621.00,-10.16,-1.74,2.81,0.02,0.13,0.15,-64.84,-14.63,0.8563672.00,-9.29,-2.06,2.55,-0.13,0.10,-0.09,-64.84,-14.63,0.8563723.00,-8.84,-2.86,2.01,-0.49,0.26,-0.22,-64.84,-14.63,0.8563775.00,-8.89,-2.43,2.88,0.09,-0.14,0.11,-64.49,-13.57,2.2163826.00,-8.89,-3.16,2.76,0.24,-0.12,0.01,-64.49,-13.57,2.2163877.00,-9.15,-2.65,2.15,0.02,0.16,-0.23,-66.07,-12.69,1.0263929.00,-9.20,-2.42,2.49,-0.21,0.19,-0.15,-66.07,-12.69,1.0263980.00,-8.81,-3.22,0.99,-0.32,0.19,-0.14,-66.42,-13.05,3.0664031.00,-8.11,-2.78,3.67,-0.04,-0.30,0.11,-66.42,-13.05,3.0664082.00,-8.37,-3.67,3.65,0.02,0.05,0.11,-66.42,-13.05,3.0664134.00,-8.94,-2.19,2.74,-0.07,0.17,-0.09,-65.19,-12.52,0.5164185.00,-8.95,-2.63,1.68,-0.06,0.21,-0.17,-65.19,-12.52,0.5164236.00,-9.18,-2.57,2.14,-0.15,-0.00,0.08,-65.54,-12.16,1.8764287.00,-8.86,-3.07,2.17,-0.15,0.01,-0.03,-65.54,-12.16,1.8764339.00,-8.93,-2.91,1.55,0.09,0.06,-0.14,-65.54,-12.16,1.8764390.00,-9.59,-2.36,1.74,-0.06,-0.36,-0.12,-66.24,-11.46,2.5564441.00,-8.38,-3.05,3.19,-0.15,-0.42,-0.12,-66.24,-11.46,2.5564492.00,-8.20,-3.62,3.20,-0.09,-0.35,-0.10,-65.72,-10.58,1.0264544.00,-8.40,-3.53,3.22,-0.02,-0.07,-0.02,-65.72,-10.58,1.0264595.00,-8.74,-3.22,2.67,0.00,-0.00,0.00,-65.54,-11.11,0.1764646.00,-8.71,-3.34,2.72,0.01,-0.00,0.00,-65.54,-11.11,0.1764698.00,-9.14,-2.81,2.36,-0.03,-0.18,0.04,-65.54,-11.11,0.1764749.00,-9.47,-3.30,2.22,-0.17,-0.42,-0.06,-66.59,-10.75,-0.5164800.00,-8.36,-3.37,3.45,0.08,-0.64,-0.04,-66.59,-10.75,-0.5164851.00,-8.75,-3.40,4.16,-0.10,-0.34,0.39,-65.19,-12.52,-3.2364903.00,-8.96,-3.88,3.21,-0.31,-0.10,0.15,-65.19,-12.52,-3.2364954.00,-8.37,-2.65,3.25,-0.01,0.08,0.09,-65.19,-12.52,-3.2365006.00,-8.02,-2.97,3.05,-0.24,0.12,-0.23,-64.66,-11.99,-3.0665057.00,-7.66,-3.44,1.01,-0.73,0.49,-0.11,-64.66,-11.99,-3.0665109.00,-8.70,-2.66,1.95,-0.62,0.51,-0.32,-64.66,-11.99,-3.0665160.00,-7.78,-3.76,0.06,-0.96,0.08,-0.61,-66.24,-10.05,-1.8765211.00,-7.78,-5.98,4.03,-0.81,0.10,-0.70,-66.24,-10.05,-1.8765263.00,-9.07,-4.27,1.05,-1.15,0.43,-0.38,-62.90,-5.29,-1.0265314.00,-9.10,-5.70,2.52,-0.75,-0.13,-0.85,-62.90,-5.29,-1.0265365.00,-8.57,-6.71,2.05,-0.58,-0.20,-0.55,-63.96,-0.35,0.0065417.00,-6.97,-6.00,2.53,-0.32,-0.04,-0.65,-63.96,-0.35,0.0065468.00,-7.09,-5.70,1.92,-0.21,0.23,-0.36,-63.96,-0.35,0.0065520.00,-8.55,-5.55,1.04,-0.42,0.32,-0.38,-62.73,2.29,1.1965571.00,-7.46,-5.40,2.18,-1.03,0.36,-0.73,-62.73,2.29,1.1965622.00,-7.21,-6.66,0.30,-1.79,0.72,-0.84,-59.92,5.82,5.2765674.00,-6.71,-4.29,0.36,-3.27,0.43,-1.05,-59.92,5.82,5.2765725.00,-4.89,-7.21,-1.17,-3.21,0.90,-1.11,-59.92,5.82,5.2765777.00,-6.71,-8.77,-3.84,-2.72,0.78,0.02,-57.81,9.34,14.7865828.00,-7.52,-4.98,-5.09,-2.20,0.58,0.56,-57.81,9.34,14.7865879.00,-6.44,-5.72,-6.04,-1.47,0.36,-0.18,-55.52,3.17,25.8265931.00,-5.90,-5.01,-5.38,-1.39,0.23,0.08,-55.52,3.17,25.8265982.00,-5.65,-4.34,-4.94,-1.90,0.24,0.40,-56.23,-0.71,28.2066034.00,-5.68,-3.32,-6.22,-2.99,0.41,0.81,-56.23,-0.71,28.2066085.00,-6.03,-3.15,-8.27,-3.29,0.40,1.09,-56.23,-0.71,28.2066137.00,-6.78,0.89,-7.53,-3.26,0.36,1.23,-56.75,-13.57,33.8066188.00,-5.73,1.81,-7.92,-2.67,0.59,0.86,-56.75,-13.57,33.8066239.00,-5.33,2.66,-8.00,-1.93,-0.07,0.58,-56.40,-27.68,30.7466291.00,-5.84,2.72,-8.84,-1.37,0.49,0.38,-56.40,-27.68,30.7466342.00,-5.35,3.35,-8.59,-0.32,0.90,0.47,-56.40,-27.68,30.7466394.00,-4.69,3.60,-8.52,-0.05,0.47,0.30,-55.17,-34.55,30.5766445.00,-4.32,2.66,-8.39,-0.05,0.42,0.03,-55.17,-34.55,30.5766496.00,-4.94,3.56,-8.77,-0.14,0.15,0.36,-52.54,-35.44,32.7866548.00,-4.72,4.13,-8.28,0.53,0.43,0.33,-52.54,-35.44,32.7866599.00,-4.55,4.22,-9.91,0.43,-0.07,0.01,-52.54,-35.44,32.7866651.00,-4.09,3.80,-10.80,0.94,-0.78,0.01,-50.96,-33.85,34.9966702.00,-2.38,3.47,-8.24,0.63,-1.14,0.69,-50.96,-33.85,34.9966754.00,-2.61,2.52,-10.59,1.90,1.11,-0.41,-53.06,-34.20,33.6366805.00,-0.21,-2.36,-8.74,2.75,1.04,-0.40,-53.06,-34.20,33.6366857.00,0.44,-1.53,-7.85,1.45,2.85,1.75,-46.91,-26.27,41.2766908.00,-1.13,1.36,-11.84,0.40,2.56,2.48,-46.91,-26.27,41.2766960.00,-2.66,3.01,-7.30,0.67,0.77,1.57,-46.91,-26.27,41.2767011.00,-4.25,4.25,-10.16,0.42,1.18,1.14,-46.91,-26.27,41.2767062.00,-3.73,1.61,-10.59,0.43,0.31,-0.12,-46.91,-26.27,41.2767114.00,-2.64,-0.84,-10.97,0.09,0.43,0.08,-28.82,-24.33,46.2067165.00,-2.41,0.95,-11.25,-0.72,0.15,0.40,-28.82,-24.33,46.2067217.00,-0.64,0.92,-9.23,-0.24,0.05,-0.06,-28.82,-24.33,46.2067268.00,-0.01,0.09,-9.75,-0.51,0.08,0.06,-27.59,-26.27,47.7367320.00,-0.56,3.31,-12.57,-1.11,0.14,0.63,-27.59,-26.27,47.7367371.00,0.13,2.69,-8.90,-0.05,-0.08,-0.07,-28.11,-30.32,45.8667423.00,0.63,-0.59,-9.15,0.50,0.28,0.34,-28.11,-30.32,45.8667474.00,-1.81,2.97,-9.90,1.13,0.04,0.10,-28.11,-30.32,45.8667526.00,1.10,-1.42,-12.19,1.56,0.64,-0.20,-25.13,-27.33,45.6967577.00,0.31,0.65,-9.82,-0.48,0.00,-0.01,-25.13,-27.33,45.6967629.00,0.56,0.03,-10.65,-0.84,0.07,-0.16,-23.55,-25.74,46.5467680.00,0.22,1.22,-10.22,0.04,-0.27,-0.05,-23.55,-25.74,46.5467732.00,0.14,0.38,-9.77,0.01,-0.42,0.11,-23.55,-25.74,46.5467783.00,0.08,0.90,-9.99,-0.34,-0.16,0.03,-24.95,-26.80,46.5467835.00,-0.78,2.93,-11.61,0.00,-0.13,-0.47,-24.95,-26.80,46.5467886.00,-0.36,0.90,-10.16,1.33,-0.48,-0.85,-26.88,-28.03,47.0567938.00,-0.63,-0.20,-9.67,0.18,-0.16,-0.13,-26.88,-28.03,47.0567989.00,-0.41,-0.08,-10.01,0.03,-0.00,0.01,-26.88,-28.03,47.0568041.00,-0.77,0.62,-10.09,-0.09,-0.19,0.18,-28.46,-23.62,46.5468092.00,-0.43,0.34,-10.22,-0.01,-0.01,-0.01,-28.46,-23.62,46.5468144.00,-0.36,-0.25,-9.97,0.12,0.07,-0.03,-28.82,-23.98,46.5468196.00,-0.43,0.27,-10.15,0.02,-0.05,-0.01,-28.82,-23.98,46.5468247.00,-0.48,0.29,-10.18,0.01,-0.01,-0.01,-27.24,-24.51,45.3568299.00,-0.42,0.34,-10.21,0.00,-0.02,-0.01,-27.24,-24.51,45.3568350.00,-0.44,0.31,-10.16,-0.00,-0.01,-0.01,-27.24,-24.51,45.3568402.00,-0.43,0.29,-10.19,0.01,-0.02,-0.01,-27.76,-23.98,46.2068453.00,-0.40,0.34,-10.21,-0.01,-0.00,-0.01,-27.76,-23.98,46.2068505.00,-0.44,0.32,-10.21,0.00,-0.02,-0.01,-29.34,-25.21,46.0368557.00,-0.42,0.32,-10.20,0.00,-0.01,-0.01,-29.34,-25.21,46.0368608.00,-0.42,0.31,-10.20,-0.00,-0.01,-0.01,-29.34,-25.21,46.0368660.00,-0.42,0.30,-10.14,0.00,-0.01,-0.01,-28.11,-24.68,46.8868711.00,-0.43,0.32,-10.20,-0.00,-0.01,-0.01,-28.11,-24.68,46.8868763.00,-0.44,0.31,-10.18,-0.00,-0.01,-0.01,-27.94,-24.15,46.0368815.00,-0.43,0.32,-10.20,0.00,-0.01,-0.01,-27.94,-24.15,46.0368866.00,-0.42,0.32,-10.19,-0.00,-0.01,-0.01,-28.11,-24.68,47.5668918.00,-0.42,0.32,-10.19,-0.00,-0.01,-0.01,-28.11,-24.68,47.5668969.00,-0.43,0.33,-10.19,0.00,-0.01,-0.01,-28.11,-24.68,47.5669021.00,-0.42,0.32,-10.18,-0.00,-0.01,-0.01,-27.76,-25.39,45.8669073.00,-0.43,0.31,-10.18,0.00,-0.01,-0.01,-27.76,-25.39,45.8669124.00,-0.42,0.33,-10.20,-0.00,-0.01,-0.01,-28.11,-23.98,47.9069176.00,-0.42,0.33,-10.20,-0.00,-0.01,-0.01,-28.11,-23.98,47.9069227.00,-0.42,0.33,-10.19,0.00,-0.01,-0.01,-28.11,-23.98,47.9069279.00,-0.42,0.32,-10.11,0.00,-0.01,-0.01,-28.99,-24.15,47.3969330.00,-0.43,0.31,-10.21,0.00,-0.01,-0.01,-28.99,-24.15,47.3969382.00,-0.39,0.33,-10.22,-0.01,0.01,-0.01,-28.99,-24.15,47.3969434.00,-0.45,0.27,-10.14,0.01,-0.03,-0.01,-28.99,-24.15,47.3969485.00,-0.40,0.34,-10.24,-0.00,-0.01,-0.01,-28.99,-24.15,47.3969537.00,-0.42,0.33,-10.20,-0.00,0.00,-0.01,-29.52,-23.98,47.5669589.00,-0.44,0.32,-10.19,0.00,-0.02,-0.01,-29.52,-23.98,47.5669640.00,-0.40,0.33,-10.20,-0.00,-0.00,-0.01,-28.46,-24.68,46.5469692.00,-0.43,0.32,-10.18,0.00,-0.01,-0.01,-28.46,-24.68,46.5469743.00,-0.42,0.31,-10.19,0.00,-0.01,-0.01,-29.17,-23.27,47.5669795.00,-0.41,0.33,-10.19,-0.00,-0.01,-0.01,-29.17,-23.27,47.5669847.00,-0.42,0.31,-10.20,-0.00,-0.01,-0.01,-29.17,-23.27,47.5669898.00,-0.44,0.33,-10.19,-0.00,-0.01,-0.01,-27.24,-24.86,47.3969950.00,-0.44,0.31,-10.19,-0.00,-0.01,-0.01,-27.24,-24.86,47.3970002.00,-0.44,0.34,-10.20,-0.00,-0.01,-0.01,-28.11,-24.33,46.8870053.00,-0.43,0.30,-10.18,0.00,-0.01,-0.01,-28.11,-24.33,46.8870105.00,-0.42,0.31,-10.19,-0.00,-0.01,-0.01,-28.11,-24.33,46.8870157.00,-0.42,0.31,-10.19,-0.00,-0.01,-0.01,-29.87,-25.03,47.9070208.00,-0.44,0.33,-10.18,0.00,-0.01,-0.01,-29.87,-25.03,47.9070260.00,-0.42,0.31,-10.23,0.00,-0.01,-0.01,-28.82,-25.39,47.9070311.00,-0.43,0.31,-10.18,-0.00,-0.01,-0.01,-28.82,-25.39,47.9070363.00,-0.40,0.32,-10.20,0.00,-0.01,-0.01,-28.82,-25.39,47.9070415.00,-0.42,0.31,-10.20,-0.00,-0.01,-0.01,-27.94,-23.09,47.0570466.00,-0.42,0.30,-10.19,0.00,-0.01,-0.01,-27.94,-23.09,47.0570518.00,-0.45,0.31,-10.18,0.00,-0.01,-0.01,-28.29,-24.15,47.7370570.00,-0.41,0.33,-10.20,-0.00,-0.00,-0.01,-28.29,-24.15,47.7370621.00,-0.44,0.31,-10.19,-0.00,-0.01,-0.01,-28.29,-24.86,47.3970673.00,-0.43,0.34,-10.21,0.00,-0.01,-0.01,-28.29,-24.86,47.3970725.00,-0.42,0.31,-10.23,-0.00,-0.01,-0.01,-28.29,-24.86,47.3970776.00,-0.42,0.31,-10.21,-0.00,-0.01,-0.01,-27.76,-23.27,46.2070828.00,-0.42,0.32,-10.18,-0.00,-0.01,-0.01,-27.76,-23.27,46.2070880.00,-0.44,0.32,-10.21,0.00,-0.01,-0.01,-27.76,-25.74,47.9070931.00,-0.42,0.32,-10.17,-0.00,-0.01,-0.01,-27.76,-25.74,47.9070983.00,-0.44,0.30,-10.17,-0.00,-0.01,-0.01,-27.76,-25.74,47.9071035.00,-0.43,0.31,-10.22,-0.00,-0.01,-0.01,-28.64,-24.86,46.7171086.00,-0.42,0.35,-10.20,-0.00,-0.00,-0.01,-28.64,-24.86,46.7171138.00,-0.48,0.33,-10.24,0.01,-0.02,-0.01,-27.76,-24.68,47.5671190.00,-0.33,0.29,-10.17,-0.01,0.01,-0.01,-27.76,-24.68,47.5671241.00,-0.49,0.33,-10.17,-0.00,-0.04,-0.01,-28.29,-23.80,48.7571293.00,-0.38,0.33,-10.21,-0.00,0.03,-0.01,-28.29,-23.80,48.7571345.00,-0.45,0.33,-10.15,-0.00,-0.04,-0.02,-28.29,-23.80,48.7571397.00,-0.40,0.23,-10.24,-0.01,0.01,-0.01,-27.76,-24.68,48.2471448.00,-0.43,0.37,-10.19,0.00,-0.02,-0.01,-27.76,-24.68,48.2471500.00,-0.46,0.28,-10.19,0.01,-0.02,-0.01,-29.34,-24.51,47.7371552.00,-0.38,0.34,-10.21,-0.01,0.00,-0.01,-29.34,-24.51,47.7371604.00,-0.46,0.31,-10.17,0.00,-0.02,-0.01,-29.34,-24.51,47.7371655.00,-0.38,0.33,-10.23,-0.01,0.00,-0.01,-27.24,-23.80,48.4171707.00,-0.44,0.29,-10.18,0.00,-0.01,-0.01,-27.24,-23.80,48.4171759.00,-0.46,0.30,-10.22,0.01,-0.02,-0.01,-27.24,-23.80,48.4171811.00,-0.43,0.33,-10.20,-0.00,-0.00,-0.01,-27.24,-23.80,48.4171862.00,-0.47,0.29,-10.17,0.01,-0.02,-0.01,-27.24,-23.80,48.4171915.00,-0.40,0.33,-10.23,-0.01,0.00,-0.01,-27.59,-25.56,47.7371969.00,-0.43,0.31,-10.19,0.00,-0.01,-0.01,-27.59,-25.56,47.7372019.00,-0.45,0.31,-10.19,0.00,-0.02,-0.01,-27.94,-24.15,48.0772070.00,-0.41,0.35,-10.18,-0.00,-0.00,-0.01,-27.94,-24.15,48.0772120.00,-0.46,0.30,-10.16,0.00,-0.02,-0.01,-29.17,-24.68,47.5672170.00,-0.41,0.34,-10.22,-0.01,0.00,-0.01,-29.17,-24.68,47.5672220.00,-0.44,0.32,-10.17,-0.00,-0.00,-0.01,-29.17,-24.68,47.5672270.00,-0.44,0.32,-10.20,0.00,-0.01,-0.01,-28.64,-23.80,47.3972321.00,-0.42,0.33,-10.20,-0.00,-0.00,-0.01,-28.64,-23.80,47.3972371.00,-0.44,0.30,-10.15,0.00,-0.01,-0.01,-28.64,-23.80,47.3972421.00,-0.42,0.33,-10.20,0.00,-0.01,-0.01,-29.17,-23.98,47.9072471.00,-0.42,0.31,-10.19,-0.00,-0.01,-0.01,-29.17,-23.98,47.9072521.00,-0.44,0.30,-10.21,0.00,-0.02,-0.01,-27.41,-25.74,47.9072572.00,-0.43,0.32,-10.18,-0.00,-0.01,-0.01,-27.41,-25.74,47.9072622.00,-0.44,0.31,-10.19,0.00,-0.01,-0.01,-27.94,-24.15,47.7372672.00,-0.42,0.34,-10.17,-0.00,-0.01,-0.01,-27.94,-24.15,47.7372722.00,-0.43,0.31,-10.17,-0.00,-0.01,-0.01,-27.94,-24.15,47.7372773.00,-0.43,0.33,-10.19,-0.00,-0.01,-0.01,-28.29,-25.21,47.7372823.00,-0.42,0.32,-10.18,-0.00,-0.01,-0.01,-28.29,-25.21,47.7372873.00,-0.44,0.33,-10.20,0.00,-0.01,-0.01,-28.29,-25.21,47.7372924.00,-0.42,0.32,-10.20,0.00,-0.01,-0.01,-28.46,-24.33,48.5872974.00,-0.43,0.32,-10.18,0.00,-0.01,-0.01,-28.46,-24.33,48.5873024.00,-0.44,0.31,-10.19,0.00,-0.01,-0.01,-28.29,-24.51,49.0973075.00,-0.44,0.32,-10.19,0.00,-0.01,-0.01,-28.29,-24.51,49.0973125.00,-0.43,0.32,-10.20,0.00,-0.01,-0.01,-28.82,-25.03,48.5873175.00,-0.43,0.31,-10.21,-0.00,-0.01,-0.01,-28.82,-25.03,48.5873226.00,-0.41,0.31,-10.20,-0.00,-0.01,-0.01,-28.82,-25.03,48.5873276.00,-0.42,0.30,-10.17,0.00,-0.01,-0.01,-28.64,-24.51,49.4373326.00,-0.44,0.32,-10.18,-0.00,-0.01,-0.01,-28.64,-24.51,49.4373377.00,-0.43,0.32,-10.19,0.00,-0.01,-0.01,-28.64,-24.51,49.4373427.00,-0.44,0.32,-10.19,0.00,-0.01,-0.01,-29.17,-23.98,47.5673478.00,-0.42,0.34,-10.19,-0.00,-0.01,-0.01,-29.17,-23.98,47.5673528.00,-0.44,0.30,-10.20,0.00,-0.01,-0.01,-27.76,-23.98,47.2273578.00,-0.43,0.33,-10.17,0.00,-0.01,-0.01,-27.76,-23.98,47.2273629.00,-0.42,0.31,-10.19,-0.00,-0.01,-0.01,-28.29,-24.15,48.7573679.00,-0.42,0.31,-10.18,0.00,-0.01,-0.01,-28.29,-24.15,48.7573729.00,-0.42,0.32,-10.21,-0.00,-0.01,-0.01,-28.29,-24.15,48.7573780.00,-0.44,0.33,-10.20,-0.00,-0.01,-0.01,-27.59,-24.51,48.4173830.00,-0.44,0.32,-10.19,-0.00,-0.01,-0.01,-27.59,-24.51,48.4173881.00,-0.42,0.32,-10.20,0.00,-0.01,-0.01,-28.11,-25.03,48.5873931.00,-0.44,0.33,-10.19,-0.00,-0.01,-0.01,-28.11,-25.03,48.5873981.00,-0.41,0.31,-10.18,-0.00,-0.01,-0.01,-28.11,-25.03,48.5874032.00,-0.42,0.32,-10.21,0.00,-0.01,-0.01,-26.53,-24.15,47.7374082.00,-0.42,0.32,-10.17,0.00,-0.01,-0.01,-26.53,-24.15,47.7374132.00,-0.44,0.33,-10.18,-0.00,-0.01,-0.01,-26.53,-24.15,47.7374183.00,-0.44,0.32,-10.17,0.00,-0.01,-0.01,-29.69,-23.09,47.7374233.00,-0.43,0.33,-10.19,0.00,-0.01,-0.01,-29.69,-23.09,47.7374284.00,-0.42,0.32,-10.20,-0.00,-0.01,-0.01,-27.06,-25.39,48.9274334.00,-0.44,0.31,-10.17,0.00,-0.01,-0.01,-27.06,-25.39,48.9274384.00,-0.43,0.32,-10.20,0.00,-0.01,-0.01,-27.94,-24.51,48.7574435.00,-0.43,0.32,-10.20,0.00,-0.01,-0.01,-27.94,-24.51,48.7574485.00,-0.44,0.33,-10.18,0.00,-0.01,-0.01,-27.94,-24.51,48.7574536.00,-0.43,0.33,-10.23,0.00,-0.01,-0.01,-27.06,-23.98,49.2674586.00,-0.44,0.32,-10.21,-0.00,-0.01,-0.01,-27.06,-23.98,49.2674637.00,-0.43,0.32,-10.17,-0.00,-0.01,-0.01,-27.06,-23.98,49.2674687.00,-0.43,0.32,-10.19,-0.00,-0.01,-0.01,-29.17,-23.27,48.9274737.00,-0.43,0.31,-10.18,0.00,-0.01,-0.01,-29.17,-23.27,48.9274788.00,-0.42,0.31,-10.20,-0.00,-0.01,-0.01,-26.53,-24.86,48.7574838.00,-0.42,0.30,-10.18,-0.00,-0.01,-0.01,-26.53,-24.86,48.7574889.00,-0.43,0.33,-10.22,0.00,-0.01,-0.01,-27.76,-24.68,48.5874939.00,-0.43,0.32,-10.18,-0.00,-0.01,-0.01,-27.76,-24.68,48.5874989.00,-0.43,0.33,-10.19,-0.00,-0.01,-0.01,-27.76,-24.68,48.5875040.00,-0.41,0.32,-10.21,-0.00,-0.01,-0.01,-28.99,-24.86,48.7575090.00,-0.44,0.32,-10.15,0.00,-0.01,-0.01,-28.99,-24.86,48.7575141.00,-0.42,0.33,-10.23,-0.00,-0.01,-0.01,-29.34,-24.51,49.0975191.00,-0.44,0.31,-10.13,0.00,-0.01,-0.01,-29.34,-24.51,49.0975242.00,-0.41,0.32,-10.15,0.00,-0.01,-0.01,-29.34,-24.51,49.0975292.00,-0.42,0.31,-10.21,-0.00,-0.01,-0.01,-28.46,-23.98,47.9075343.00,-0.44,0.32,-10.19,0.00,-0.01,-0.01,-28.46,-23.98,47.9075393.00,-0.41,0.33,-10.21,-0.00,-0.01,-0.01,-27.06,-23.98,47.5675444.00,-0.43,0.32,-10.19,-0.00,-0.01,-0.01,-27.06,-23.98,47.5675494.00,-0.43,0.31,-10.18,-0.00,-0.01,-0.01,-27.06,-23.98,47.5675544.00,-0.41,0.33,-10.33,-0.00,-0.01,-0.01,-28.99,-24.51,48.4175595.00,-0.44,0.30,-10.10,0.00,-0.01,-0.01,-28.99,-24.51,48.4175646.00,-0.42,0.32,-10.21,0.00,-0.01,-0.01,-29.52,-23.98,48.5875696.00,-0.43,0.31,-10.19,-0.00,-0.01,-0.01,-29.52,-23.98,48.5875747.00,-0.43,0.32,-10.18,0.00,-0.02,-0.01,-29.52,-23.98,48.5875797.00,-0.42,0.33,-10.21,-0.00,-0.00,-0.01,-27.76,-23.62,48.5875848.00,-0.43,0.32,-10.19,-0.00,-0.01,-0.01,-27.76,-23.62,48.5875898.00,-0.43,0.33,-10.21,0.00,-0.01,-0.01,-27.41,-23.62,49.9475949.00,-0.41,0.33,-10.17,-0.00,-0.01,-0.01,-27.41,-23.62,49.9475999.00,-0.43,0.31,-10.19,0.00,-0.01,-0.01,-27.41,-23.62,49.9476050.00,-0.42,0.31,-10.14,0.00,-0.01,-0.01,-28.11,-24.68,48.9276100.00,-0.43,0.31,-10.25,-0.00,-0.01,-0.01,-28.11,-24.68,48.9276151.00,-0.64,0.23,-10.11,-0.01,-0.00,-0.01,-27.94,-24.51,48.0776201.00,-0.29,-0.21,-9.75,0.10,-0.17,-0.24,-27.94,-24.51,48.0776252.00,-0.44,0.94,-10.43,-0.25,0.00,-0.52,-27.94,-24.51,48.0776302.00,-0.72,0.13,-10.36,-0.34,0.14,-1.76,-29.34,-24.15,47.7376353.00,-0.21,0.45,-9.87,-0.04,-0.02,-1.56,-29.34,-24.15,47.7376403.00,-0.77,1.44,-10.75,-1.08,0.31,0.40,-30.75,-24.15,47.0576454.00,0.36,1.96,-10.32,0.22,0.02,0.06,-30.75,-24.15,47.0576504.00,-0.49,0.77,-10.16,0.10,-0.12,-0.16,-32.15,-24.51,48.0776555.00,-0.49,0.45,-9.99,-0.03,0.03,-0.17,-32.15,-24.51,48.0776606.00,-0.33,0.65,-10.18,0.02,-0.02,-0.02,-32.15,-24.51,48.0776656.00,-0.47,0.36,-10.02,-0.03,-0.07,-0.07,-30.92,-23.98,47.5676707.00,-0.47,0.52,-10.03,-0.01,-0.03,0.01,-30.92,-23.98,47.5676757.00,-0.51,1.12,-10.30,-0.02,-0.01,-0.08,-30.92,-23.98,47.5676808.00,-0.35,0.15,-10.01,0.19,-0.07,-0.26,-31.28,-23.98,47.5676858.00,-0.41,0.57,-10.23,-0.01,-0.02,-0.06,-31.28,-23.98,47.5676909.00,-0.50,0.54,-10.09,-0.08,-0.00,0.02,-30.22,-22.57,48.2476960.00,-0.38,0.54,-10.15,-0.09,0.01,-0.02,-30.22,-22.57,48.2477010.00,-0.56,0.88,-10.21,-0.18,-0.05,0.04,-30.22,-22.57,48.2477061.00,-0.39,0.83,-10.26,-0.12,0.06,0.05,-31.28,-23.27,48.9277111.00,-0.59,0.87,-10.12,-0.20,-0.09,0.06,-31.28,-23.27,48.9277162.00,-0.44,0.94,-10.24,-0.02,0.04,-0.01,-30.57,-25.74,50.2877212.00,-0.63,0.91,-10.09,-0.04,-0.09,-0.01,-30.57,-25.74,50.2877263.00,-0.50,1.37,-10.39,0.04,-0.04,-0.14,-30.57,-26.44,48.2477314.00,-0.51,1.05,-10.35,0.05,-0.01,-0.03,-30.57,-26.44,48.2477364.00,-0.55,0.93,-10.13,-0.06,-0.05,0.12,-30.57,-26.44,48.2477415.00,-0.53,0.97,-10.13,-0.10,-0.01,0.07,-31.98,-25.74,49.9477465.00,-0.60,1.16,-10.16,-0.11,-0.05,0.03,-31.98,-25.74,49.9477516.00,-0.60,1.09,-10.10,-0.10,-0.03,0.04,-31.98,-25.74,49.9477567.00,-0.93,1.25,-9.93,0.01,0.02,-0.23,-30.57,-25.74,49.2677617.00,-0.40,1.36,-10.30,0.05,0.18,-0.36,-30.57,-25.74,49.2677668.00,-0.33,0.72,-10.13,-0.12,-0.07,-0.25,-30.57,-26.44,47.5677719.00,-0.58,1.39,-10.28,-0.21,-0.11,0.01,-30.57,-26.44,47.5677769.00,-0.73,1.72,-10.25,0.12,-0.19,-0.17,-31.10,-26.27,49.0977820.00,-1.28,1.20,-9.34,-0.19,0.26,0.23,-31.10,-26.27,49.0977871.00,-0.12,0.81,-10.16,0.83,0.39,-0.49,-31.10,-26.27,49.0977921.00,0.06,0.68,-10.22,-0.08,-0.31,0.08,-30.40,-24.86,48.7577972.00,-0.94,2.17,-10.51,-0.49,0.10,0.55,-30.40,-24.86,48.7578023.00,-0.89,1.02,-9.69,-0.02,0.36,-0.14,-31.28,-25.39,49.6078073.00,-0.40,1.59,-10.18,0.23,0.03,-0.90,-31.28,-25.39,49.6078124.00,0.57,1.59,-10.64,0.19,-0.20,-0.03,-31.28,-25.39,49.6078175.00,-0.25,-1.23,-9.90,-0.44,-0.30,0.85,-30.75,-24.86,52.1478226.00,-0.51,2.16,-10.35,-0.37,-0.05,0.49,-30.75,-24.86,52.1478276.00,-0.64,0.90,-9.65,0.31,-0.52,-0.20,-30.40,-25.92,46.0378327.00,-0.62,1.27,-10.09,0.01,-0.01,-0.03,-30.40,-25.92,46.0378378.00,-0.50,1.23,-10.10,-0.01,-0.00,-0.03,-30.40,-25.92,46.0378428.00,-0.57,1.31,-10.15,-0.02,-0.01,-0.02,-31.10,-26.97,48.7578479.00,-0.57,1.25,-10.11,-0.01,-0.00,-0.03,-31.10,-26.97,48.7578530.00,-0.51,1.35,-10.20,-0.09,0.01,-0.01,-31.28,-26.09,47.9078581.00,-0.55,1.33,-10.12,-0.03,-0.02,-0.01,-31.28,-26.09,47.9078631.00,-0.55,1.33,-10.11,-0.02,-0.01,-0.02,-31.28,-26.09,47.9078682.00,-0.53,1.36,-10.11,-0.04,-0.01,-0.02,-30.75,-27.33,48.4178733.00,-0.58,1.39,-10.11,-0.03,-0.02,-0.00,-30.75,-27.33,48.4178783.00,-0.56,1.37,-10.10,0.00,-0.01,-0.01,-31.45,-27.68,47.3978834.00,-0.55,1.38,-10.12,-0.01,-0.01,-0.01,-31.45,-27.68,47.3978885.00,-0.58,1.41,-10.13,0.01,-0.00,-0.02,-30.92,-27.85,47.9078936.00,-0.53,1.37,-10.14,0.00,-0.00,-0.05,-30.92,-27.85,47.9078986.00,-0.58,1.41,-10.11,0.00,-0.01,-0.04,-30.92,-27.85,47.9079037.00,-0.63,1.43,-10.18,0.01,0.01,-0.06,-31.45,-27.33,48.4179088.00,-0.64,1.36,-9.92,0.32,0.20,-0.17,-31.45,-27.33,48.4179139.00,-0.54,0.72,-10.21,0.45,0.27,-0.18,-31.45,-27.33,48.4179189.00,0.25,1.03,-10.58,-0.29,0.18,-1.44,-31.63,-25.03,48.2479240.00,0.30,0.99,-10.38,-0.01,0.09,-1.65,-31.63,-25.03,48.2479291.00,-0.53,1.19,-10.15,0.11,0.24,-2.99,-33.03,-24.68,48.9279342.00,0.54,1.54,-10.86,0.19,0.29,-3.12,-33.03,-24.68,48.9279392.00,-0.65,0.27,-10.34,0.06,0.09,-1.99,-33.03,-24.68,48.9279443.00,-0.96,1.21,-9.94,0.20,0.20,-2.51,-35.49,-17.98,48.2479494.00,0.40,0.11,-10.24,-0.41,0.67,-2.16,-35.49,-17.98,48.2479545.00,-0.77,2.30,-10.29,-0.83,0.14,-0.42,-33.38,-17.28,47.9079595.00,0.03,2.84,-10.34,-1.25,0.10,-0.44,-33.38,-17.28,47.9079646.00,0.24,1.64,-10.93,1.28,-0.77,-0.75,-34.44,-16.92,48.9279697.00,-0.91,-1.19,-7.66,1.18,0.02,-0.65,-34.44,-16.92,48.9279748.00,-1.76,0.88,-9.78,-0.32,-0.21,-0.49,-34.44,-16.92,48.9279798.00,0.06,0.36,-10.49,-0.02,-0.05,-0.57,-35.49,-13.40,47.5679849.00,-0.51,0.85,-10.17,-0.50,-0.18,0.21,-35.49,-13.40,47.5679900.00,-0.80,1.09,-9.50,-0.37,-0.14,0.10,-35.49,-13.40,47.5679951.00,-0.51,1.42,-10.31,-0.16,0.14,-0.15,-36.20,-15.87,47.9080002.00,-0.40,1.07,-10.24,0.03,-0.02,-0.04,-36.20,-15.87,47.9080052.00,-0.42,1.38,-10.25,-0.26,0.18,-0.09,-35.49,-15.87,48.2480103.00,-0.28,1.11,-10.26,-0.08,0.08,-0.11,-35.49,-15.87,48.2480154.00,-0.40,1.43,-10.24,0.05,-0.03,0.38,-35.14,-15.51,48.5880205.00,-0.44,1.15,-9.91,0.34,0.17,-0.27,-35.14,-15.51,48.5880256.00,-0.27,1.10,-10.16,-0.10,0.08,-0.24,-35.14,-15.51,48.5880307.00,-0.32,1.46,-10.34,0.14,0.01,-0.20,-33.74,-15.51,48.5880358.00,-0.27,0.89,-9.95,0.37,0.15,0.08,-33.74,-15.51,48.5880408.00,-0.11,0.97,-10.25,0.27,0.11,0.14,-32.51,-14.28,49.0980459.00,-0.23,0.86,-10.13,0.13,-0.02,-0.03,-32.51,-14.28,49.0980510.00,-0.13,0.70,-10.15,0.02,0.01,0.06,-32.51,-14.28,49.0980561.00,-0.19,0.82,-10.18,-0.05,-0.01,0.15,-33.91,-14.63,49.4380612.00,-0.21,0.88,-10.18,0.01,-0.06,0.25,-33.91,-14.63,49.4380663.00,-0.28,0.95,-10.14,-0.00,-0.05,0.20,-32.33,-12.69,49.9480714.00,-0.18,0.93,-10.21,0.06,-0.02,-0.08,-32.33,-12.69,49.9480764.00,-0.16,0.71,-10.15,0.04,-0.02,-0.10,-32.33,-12.69,49.9480815.00,-0.22,0.83,-10.19,-0.02,-0.00,-0.01,-33.91,-14.28,48.4180866.00,-0.13,0.76,-10.20,0.01,0.00,0.04,-33.91,-14.28,48.4180917.00,-0.06,0.71,-10.19,0.05,-0.03,0.20,-33.56,-14.28,50.1180968.00,-0.22,0.85,-10.20,0.18,0.00,0.55,-33.56,-14.28,50.1181019.00,0.04,0.44,-10.15,0.31,0.02,0.71,-33.56,-14.28,50.1181069.00,-0.47,0.52,-9.75,0.24,-0.10,1.18,-32.33,-14.46,48.5881121.00,0.03,0.28,-10.26,0.09,-0.09,1.16,-32.33,-14.46,48.5881171.00,-0.31,0.47,-9.96,0.14,-0.13,1.82,-32.86,-14.63,48.0781222.00,0.22,-0.06,-10.25,0.07,-0.03,2.21,-32.86,-14.63,48.0781273.00,-0.22,0.41,-10.09,0.07,0.04,1.92,-32.15,-19.22,47.7381324.00,-0.52,0.98,-10.17,-0.10,-0.03,1.72,-32.15,-19.22,47.7381375.00,-0.06,0.67,-10.38,-0.35,-0.00,1.09,-32.15,-19.22,47.7381426.00,-0.13,0.74,-10.24,-0.05,-0.22,1.11,-30.92,-21.51,50.2881477.00,-0.25,0.91,-10.38,0.19,-0.24,1.07,-30.92,-21.51,50.2881528.00,-0.52,0.94,-10.23,0.04,-0.02,0.50,-32.15,-21.68,48.7581578.00,-0.46,0.53,-10.12,0.04,0.04,0.14,-32.15,-21.68,48.7581630.00,-0.18,0.38,-10.27,0.08,0.11,0.17,-32.15,-21.68,48.7581681.00,-0.21,0.54,-10.16,-0.08,-0.05,0.11,-30.75,-21.68,50.1181732.00,-0.20,0.61,-10.27,-0.07,0.01,-0.12,-30.75,-21.68,50.1181782.00,-0.20,0.37,-10.13,-0.01,0.01,-0.01,-30.75,-21.68,50.1181833.00,-0.16,0.43,-10.31,0.03,-0.01,0.20,-31.28,-22.21,48.5881884.00,-0.27,0.62,-10.19,0.01,-0.03,0.32,-31.28,-22.21,48.5881935.00,-0.25,0.57,-10.13,0.05,-0.03,0.21,-31.28,-23.27,48.9281986.00,-0.23,0.50,-10.18,0.06,-0.02,0.07,-31.28,-23.27,48.9282037.00,-0.29,0.53,-10.21,0.08,0.05,0.07,-30.40,-24.15,49.0982088.00,-0.07,0.69,-10.52,0.05,0.16,0.03,-30.40,-24.15,49.0982139.00,-0.10,0.41,-10.23,0.19,0.04,-0.10,-30.40,-24.15,49.0982190.00,-0.16,0.33,-10.10,0.04,-0.00,-0.15,-30.05,-20.98,49.7782241.00,0.02,0.13,-10.15,0.05,0.17,-0.08,-30.05,-20.98,49.7782292.00,-0.00,0.29,-10.23,-0.01,0.01,-0.01,-29.87,-21.51,49.2682342.00,0.03,0.32,-10.25,0.00,-0.01,-0.01,-29.87,-21.51,49.2682393.00,-0.06,0.25,-10.15,0.04,-0.09,-0.08,-29.87,-21.51,49.2682444.00,-0.00,0.17,-10.17,0.04,-0.02,-0.04,-29.87,-21.86,48.9282495.00,-0.08,0.22,-10.20,0.02,-0.07,-0.07,-29.87,-21.86,48.9282546.00,-0.01,0.38,-10.33,0.17,-0.08,-0.15,-29.34,-22.04,50.1182597.00,-0.14,0.06,-10.08,0.06,0.03,-0.10,-29.34,-22.04,50.1182648.00,0.16,0.05,-10.39,-0.18,0.01,-0.03,-29.52,-22.21,48.2482699.00,-0.11,0.43,-10.29,0.00,0.01,0.16,-29.52,-22.21,48.2482750.00,-0.13,-0.01,-9.68,0.11,0.04,-0.14,-29.52,-22.21,48.2482801.00,0.28,0.18,-10.54,0.22,0.31,-0.20,-29.69,-19.22,49.0982852.00,0.28,-0.19,-10.12,0.09,0.06,-0.04,-29.69,-19.22,49.0982903.00,0.11,0.11,-10.30,-0.07,-0.01,0.07,-29.69,-19.22,49.0982954.00,0.28,0.14,-9.94,-0.16,0.05,0.11,-27.94,-20.63,49.4383005.00,0.21,-0.01,-10.22,0.03,-0.08,-0.04,-27.94,-20.63,49.4383056.00,-0.87,1.28,-11.94,0.30,0.03,-0.14,-29.17,-19.75,49.6083107.00,0.10,-0.80,-10.07,0.02,-0.10,-0.37,-29.17,-19.75,49.6083158.00,0.51,-0.00,-10.07,-0.13,0.09,0.38,-29.52,-19.39,47.5683209.00,-0.02,0.11,-10.32,-0.15,-0.27,-0.01,-29.52,-19.39,47.5683260.00,0.11,-0.06,-10.17,-0.03,-0.09,-0.09,-29.52,-19.39,47.5683311.00,-0.02,0.09,-10.18,0.03,-0.04,-0.00,-30.05,-20.27,47.7383362.00,-0.02,0.03,-10.19,0.00,-0.01,0.04,-30.05,-20.27,47.7383413.00,-0.03,0.17,-10.23,-0.02,-0.02,0.03,-30.05,-20.98,49.4383464.00,-0.06,0.05,-10.13,0.01,-0.05,-0.00,-30.05,-20.98,49.4383515.00,-0.06,0.08,-10.14,-0.02,-0.03,-0.00,-30.05,-20.98,49.4383566.00,-0.07,0.09,-10.20,-0.01,-0.01,-0.01,-29.17,-21.86,48.5883617.00,-0.06,0.07,-10.20,-0.00,-0.01,0.03,-29.17,-21.86,48.5883668.00,-0.04,0.12,-10.21,-0.01,-0.01,-0.00,-30.92,-19.75,48.9283719.00,-0.05,0.08,-10.19,-0.00,-0.01,-0.01,-30.92,-19.75,48.9283770.00,-0.06,0.07,-10.21,-0.00,-0.01,-0.01,-30.92,-19.75,48.9283821.00,-0.06,0.09,-10.18,0.01,-0.02,-0.02,-29.52,-20.80,48.5883872.00,-0.03,0.08,-10.20,-0.00,-0.00,-0.03,-29.52,-20.80,48.5883923.00,-0.06,0.09,-10.22,-0.00,-0.01,-0.01,-28.99,-19.57,47.7383974.00,-0.06,0.12,-10.22,0.00,-0.02,-0.01,-28.99,-19.57,47.7384025.00,-0.05,0.09,-10.21,-0.00,-0.02,-0.03,-28.99,-19.57,47.7384076.00,-0.06,0.08,-10.19,-0.01,-0.01,-0.01,-30.40,-20.27,47.0584127.00,-0.08,0.10,-10.20,0.00,-0.01,-0.01,-30.40,-20.27,47.0584178.00,-0.07,0.10,-10.23,-0.00,-0.01,-0.01,-30.22,-20.45,48.5884229.00,-0.08,0.09,-10.19,-0.00,-0.01,-0.01,-30.22,-20.45,48.5884280.00,-0.05,0.10,-10.21,-0.01,0.00,-0.01,-30.22,-20.45,48.5884331.00,-0.06,0.13,-10.20,-0.01,-0.01,-0.01,-27.94,-20.63,48.0784382.00,-0.05,0.12,-10.21,0.00,-0.01,-0.00,-27.94,-20.63,48.0784433.00,-0.06,0.15,-10.19,-0.01,-0.01,-0.01,-29.34,-20.63,47.7384484.00,-0.05,0.12,-10.22,0.00,-0.01,-0.02,-29.34,-20.63,47.7384535.00,-0.03,0.10,-10.21,0.01,-0.01,-0.02,-29.69,-20.27,48.4184586.00,-0.08,0.16,-10.18,-0.03,-0.03,-0.02,-29.69,-20.27,48.4184637.00,-0.03,0.12,-10.20,-0.00,0.02,-0.03,-29.69,-20.27,48.4184688.00,-0.04,0.14,-10.23,0.00,-0.01,-0.02,-29.52,-20.45,48.9284739.00,-0.02,0.16,-10.26,-0.03,0.04,0.06,-29.52,-20.45,48.9284790.00,-0.00,0.07,-10.23,0.02,0.01,-0.02,-30.05,-20.63,47.7384841.00,-0.03,0.15,-10.08,-0.01,0.08,0.01,-30.05,-20.63,47.7384893.00,0.06,0.09,-10.29,0.00,-0.04,-0.08,-30.05,-20.63,47.7384944.00,-0.02,0.09,-10.13,0.03,-0.04,-0.02,-30.92,-21.16,46.5484995.00,-0.09,0.24,-10.29,-0.00,0.05,0.03,-30.92,-21.16,46.5485046.00,-0.02,0.14,-10.22,-0.00,0.00,-0.08,-30.05,-20.98,45.3585097.00,-0.04,-0.15,-10.12,0.12,-0.14,-0.22,-30.05,-20.98,45.3585148.00,0.04,-0.02,-10.15,0.04,0.17,-0.07,-30.05,-20.98,45.3585199.00,0.08,0.25,-10.19,-0.03,0.11,0.11,-30.05,-20.27,45.6985250.00,0.06,0.11,-10.22,0.00,-0.11,0.03,-30.05,-20.27,45.6985301.00,0.81,-0.05,-10.25,0.11,-0.16,-0.38,-28.46,-20.10,45.8685352.00,0.00,-0.30,-10.07,-0.03,0.16,0.11,-28.46,-20.10,45.8685403.00,0.19,0.27,-10.24,-0.08,0.11,0.25,-28.46,-20.10,45.8685454.00,-0.09,-0.16,-10.16,-0.13,-0.47,-0.05,-28.82,-19.75,44.1685506.00,-0.05,0.09,-10.18,-0.03,-0.08,-0.04,-28.82,-19.75,44.1685557.00,-0.08,0.07,-10.16,-0.01,0.01,-0.00,-29.69,-20.98,46.3785608.00,-0.03,0.08,-10.24,-0.00,0.00,0.03,-29.69,-20.98,46.3785659.00,-0.07,0.13,-10.20,-0.01,-0.01,0.00,-29.69,-20.98,46.3785710.00,-0.06,0.10,-10.20,0.01,-0.02,-0.02,-29.52,-20.45,48.5885761.00,-0.06,0.09,-10.21,0.00,-0.01,-0.01,-29.52,-20.45,48.5885812.00,-0.06,0.09,-10.19,0.00,-0.02,-0.01,-29.69,-18.86,47.0585864.00,-0.07,0.09,-10.18,0.00,-0.01,-0.01,-29.69,-18.86,47.0585915.00,-0.07,0.07,-10.20,0.00,-0.02,-0.02,-29.52,-20.10,46.5485966.00,-0.08,0.10,-10.20,0.01,-0.03,-0.01,-29.52,-20.10,46.5486017.00,-0.07,0.08,-10.17,-0.00,-0.01,-0.02,-29.52,-20.10,46.5486068.00,-0.07,0.06,-10.21,0.00,-0.01,-0.02,-28.99,-19.57,46.7186120.00,-0.08,0.09,-10.22,-0.00,-0.02,-0.01,-28.99,-19.57,46.7186171.00,-0.10,0.09,-10.24,-0.00,-0.01,-0.01,-28.82,-19.39,47.2286222.00,-0.09,0.09,-10.19,-0.00,-0.01,-0.01,-28.82,-19.39,47.2286273.00,-0.10,0.09,-10.18,0.01,-0.02,-0.02,-28.82,-19.39,47.2286324.00,-0.09,0.09,-10.24,-0.01,-0.01,-0.02,-28.82,-20.10,47.9086376.00,-0.09,0.09,-10.22,0.00,-0.01,-0.02,-28.82,-20.10,47.9086427.00,-0.10,0.09,-10.22,-0.00,-0.02,-0.02,-31.10,-20.63,46.0386478.00,-0.11,0.08,-10.17,-0.00,-0.01,-0.01,-31.10,-20.63,46.0386529.00,-0.09,0.09,-10.22,-0.00,-0.01,-0.01,-31.10,-20.63,46.0386580.00,-0.11,0.07,-10.21,0.01,-0.01,-0.02,-30.92,-20.80,46.5486632.00,-0.12,0.15,-10.20,-0.00,-0.01,-0.02,-30.92,-20.80,46.5486683.00,-0.09,0.07,-10.21,0.01,0.01,-0.02,-30.40,-21.68,47.3986734.00,-0.10,0.11,-10.20,-0.02,0.01,-0.01,-30.40,-21.68,47.3986785.00,-0.08,0.11,-10.25,-0.02,-0.00,-0.02,-30.40,-21.68,47.3986837.00,-0.12,0.11,-10.22,-0.01,-0.01,-0.00,-28.46,-20.80,47.5686888.00,-0.11,0.14,-10.20,0.03,0.04,-0.01,-28.46,-20.80,47.5686939.00,-0.04,0.09,-10.24,-0.01,0.03,-0.01,-30.92,-20.80,46.2086990.00,-0.06,0.14,-10.19,-0.00,0.02,-0.00,-30.92,-20.80,46.2087042.00,0.01,0.08,-10.19,-0.00,-0.00,-0.02,-30.92,-20.80,46.2087093.00,-0.02,0.11,-10.23,-0.00,-0.01,-0.01,-29.34,-20.98,46.0387144.00,-0.01,0.13,-10.24,-0.02,0.01,-0.01,-29.34,-20.98,46.0387195.00,0.00,0.14,-10.22,0.02,0.07,0.03,-29.34,-19.57,45.0187247.00,0.02,0.18,-10.30,0.02,0.03,-0.03,-29.34,-19.57,45.0187298.00,0.05,0.12,-10.24,-0.00,0.06,-0.04,-28.29,-20.63,44.6787349.00,0.07,0.17,-10.21,0.05,0.01,-0.09,-28.29,-20.63,44.6787400.00,0.14,0.01,-10.24,0.05,-0.05,-0.14,-28.29,-20.63,44.6787452.00,0.05,0.08,-10.24,-0.02,0.08,0.04,-30.05,-21.68,45.6987503.00,0.14,0.02,-10.24,-0.02,-0.10,-0.09,-30.05,-21.68,45.6987554.00,0.09,0.20,-10.34,-0.01,0.11,0.10,-29.34,-20.98,46.7187605.00,0.05,-0.02,-10.08,0.03,-0.00,-0.01,-29.34,-20.98,46.7187657.00,0.04,0.16,-10.23,0.00,-0.02,0.05,-29.34,-20.98,46.7187708.00,0.06,-0.05,-10.14,0.04,-0.03,-0.06,-28.46,-19.39,47.2287759.00,-0.13,0.09,-10.24,0.01,0.05,0.10,-28.46,-19.39,47.2287811.00,0.11,0.04,-10.43,-0.12,-0.24,-0.17,-28.46,-21.51,45.1887862.00,-0.06,0.13,-10.22,0.04,0.02,0.04,-28.46,-21.51,45.1887913.00,0.11,-0.04,-10.24,0.06,0.11,0.12,-30.22,-20.10,48.2487964.00,0.06,0.05,-10.16,0.05,0.10,-0.02,-30.22,-20.10,48.2488016.00,0.15,-0.08,-10.11,-0.04,-0.02,0.03,-30.22,-20.10,48.2488067.00,-0.35,0.27,-10.24,-0.12,0.02,0.10,-28.29,-20.27,48.4188118.00,0.12,-0.29,-9.93,0.03,-0.03,-0.12,-28.29,-20.27,48.4188170.00,0.01,0.23,-10.33,0.17,-0.03,0.07,-28.29,-20.27,48.4188221.00,0.24,-0.53,-9.96,0.23,0.02,-0.31,-28.82,-19.39,46.2088272.00,0.00,-0.12,-10.20,-0.03,-0.01,0.06,-28.82,-19.39,46.2088323.00,0.10,0.21,-10.31,-0.20,0.06,0.28,-28.82,-19.04,46.8888375.00,0.12,0.01,-10.25,-0.14,-0.24,-0.13,-28.82,-19.04,46.8888426.00,0.01,-0.10,-10.17,-0.11,-0.10,0.06,-31.10,-19.57,47.3988477.00,-0.00,-0.03,-10.03,0.02,-0.02,-0.04,-31.10,-19.57,47.3988529.00,0.02,0.02,-10.17,0.01,-0.00,-0.04,-31.10,-19.57,47.3988580.00,0.01,0.06,-10.22,0.00,-0.01,-0.00,-29.69,-19.92,47.3988631.00,-0.01,0.03,-10.15,0.01,-0.03,-0.02,-29.69,-19.92,47.3988683.00,-0.00,0.02,-10.21,0.01,-0.02,-0.01,-29.52,-19.04,46.8888734.00,-0.02,0.05,-10.18,-0.01,-0.01,-0.02,-29.52,-19.04,46.8888785.00,-0.01,0.09,-10.25,-0.00,-0.03,-0.04,-29.52,-19.04,46.8888837.00,-0.02,-0.03,-10.14,-0.00,-0.04,-0.04,-29.87,-21.51,46.8888888.00,-0.04,0.05,-10.19,-0.01,-0.03,-0.01,-29.87,-21.51,46.8888939.00,-0.12,0.08,-10.16,-0.01,-0.03,0.00,-30.22,-20.10,47.5688991.00,-0.06,0.06,-10.20,-0.02,-0.02,-0.02,-30.22,-20.10,47.5689042.00,-0.12,0.38,-10.19,0.01,-0.01,0.04,-30.22,-20.10,47.5689093.00,-0.13,0.09,-10.22,-0.02,-0.01,-0.05,-29.69,-19.22,47.3989145.00,0.01,0.05,-10.20,-0.02,-0.02,-0.03,-29.69,-19.22,47.3989196.00,-0.10,0.09,-10.16,-0.06,-0.10,0.01,-28.82,-20.80,48.2489248.00,-0.54,0.16,-9.22,-0.08,-0.03,0.05,-28.82,-20.80,48.2489299.00,0.01,0.08,-10.38,-0.01,-0.03,-0.08,-28.46,-21.16,46.5489350.00,-0.07,0.16,-10.15,0.02,-0.03,-0.01,-28.46,-21.16,46.5489401.00,-0.35,0.25,-10.18,-0.19,-0.08,0.00,-28.46,-21.16,46.5489453.00,-0.11,0.11,-10.22,0.06,0.02,-0.07,-28.99,-20.98,46.7189504.00,-0.10,0.19,-10.17,-0.01,0.01,-0.01,-28.99,-20.98,46.7189555.00,-0.10,0.24,-10.24,0.01,-0.01,0.00,-30.92,-20.45,47.5689607.00,-0.08,0.21,-10.23,0.04,0.00,-0.02,-30.92,-20.45,47.5689658.00,-0.18,0.19,-10.08,0.07,-0.08,-0.00,-30.92,-20.45,47.5689710.00,-0.08,0.14,-10.25,0.04,-0.01,0.00,-29.17,-20.45,47.2289761.00,-0.11,0.18,-10.17,0.01,-0.00,-0.02,-29.17,-20.45,47.2289812.00,-0.15,0.20,-10.19,0.02,0.01,-0.03,-30.75,-20.98,47.3989864.00,-0.03,0.15,-10.28,0.04,0.03,-0.06,-30.75,-20.98,47.3989915.00,-0.15,0.25,-10.12,-0.01,0.05,0.05,-30.75,-20.98,47.3989966.00,-0.03,-0.04,-10.14,0.04,0.00,0.03,-28.82,-19.75,46.8890018.00,-0.05,0.28,-10.30,0.05,0.00,-0.01,-28.82,-19.75,46.8890069.00,0.00,-0.20,-10.07,0.12,-0.00,-0.06,-30.05,-19.57,46.3790120.00,-0.06,0.06,-10.17,0.05,-0.03,-0.03,-30.05,-19.57,46.3790172.00,0.05,-0.11,-10.22,-0.08,0.09,0.01,-30.05,-19.57,46.3790223.00,0.00,0.11,-10.21,0.01,-0.05,-0.01,-28.64,-19.57,48.4190275.00,0.03,0.07,-10.19,-0.01,-0.02,-0.09,-28.64,-19.57,48.4190326.00,-0.01,0.11,-10.20,-0.04,-0.01,-0.09,-30.40,-20.98,49.0990377.00,0.11,0.08,-10.20,-0.05,0.09,0.01,-30.40,-20.98,49.0990429.00,0.07,0.11,-10.22,-0.07,0.01,0.01,-30.40,-20.98,49.0990480.00,0.04,0.17,-10.25,-0.02,-0.04,-0.01,-28.99,-20.63,48.0790532.00,0.11,0.30,-10.30,-0.03,-0.02,0.03,-28.99,-20.63,48.0790583.00,0.01,0.18,-10.16,0.03,-0.05,-0.07,-30.22,-20.80,47.9090635.00,0.06,-0.01,-10.29,-0.02,-0.02,0.03,-30.22,-20.80,47.9090686.00,0.01,0.21,-10.26,-0.02,-0.03,0.01,-28.29,-19.92,47.3990738.00,-0.06,0.22,-10.07,0.01,-0.02,0.02,-28.29,-19.92,47.3990789.00,-0.12,0.39,-10.34,0.05,0.04,0.07,-28.29,-19.92,47.3990841.00,0.01,0.11,-10.36,0.36,-0.11,-0.09,-28.29,-19.92,47.3990892.00,0.04,0.34,-9.04,0.62,-0.09,-0.12,-28.29,-19.92,47.3990944.00,-0.01,-0.61,-10.08,-0.16,0.13,-0.57,-30.05,-19.57,46.7190995.00,0.51,-0.48,-10.38,-0.06,-0.02,-0.21,-30.05,-19.57,46.7191047.00,-0.46,-0.30,-9.65,0.29,-0.14,0.88,-30.05,-19.57,46.7191098.00,-0.06,0.07,-10.01,-0.07,0.07,0.14,-29.17,-18.69,48.2491149.00,-0.93,0.00,-9.91,-0.13,0.21,-0.32,-29.17,-18.69,48.2491201.00,0.83,-0.20,-10.40,-0.06,-0.12,-0.31,-29.17,-19.75,47.5691253.00,-0.21,-0.12,-10.17,-0.02,-0.05,0.13,-29.17,-19.75,47.5691304.00,0.29,-0.04,-10.58,-0.70,0.00,-0.49,-29.17,-19.75,47.5691355.00,0.14,0.65,-10.73,-0.42,-0.23,-0.17,-28.82,-20.45,50.2891407.00,-0.06,0.53,-10.22,0.09,-0.11,0.46,-28.82,-20.45,50.2891459.00,0.33,0.21,-10.45,0.01,0.04,0.09,-29.34,-19.92,48.4191510.00,-0.18,0.71,-10.23,0.04,-0.04,-0.06,-29.34,-19.92,48.4191561.00,-0.22,0.71,-10.11,-0.01,-0.01,-0.34,-31.10,-19.57,47.7391613.00,0.18,0.00,-10.30,-0.08,0.05,-0.42,-31.10,-19.57,47.7391664.00,-0.30,0.51,-9.98,-0.01,-0.02,0.11,-31.10,-19.57,47.7391716.00,0.20,0.05,-10.22,0.07,-0.04,-0.14,-30.75,-20.27,50.1191767.00,0.08,0.22,-10.35,0.01,-0.04,-0.05,-30.75,-20.27,50.1191819.00,-0.30,-0.08,-9.75,0.38,-0.34,-0.18,-29.34,-20.63,49.0991870.00,0.18,-0.38,-10.61,0.14,-0.14,-0.09,-29.34,-20.63,49.0991922.00,-0.53,-0.11,-9.69,0.18,-0.14,0.12,-29.34,-20.63,49.0991973.00,-0.08,-0.34,-10.26,-0.01,-0.04,-0.26,-31.28,-18.33,47.5692025.00,-0.37,-0.03,-10.19,-0.00,-0.02,0.06,-31.28,-18.33,47.5692077.00,-0.40,-0.08,-10.18,-0.16,0.21,-0.06,-31.98,-18.69,48.9292128.00,-0.05,-0.03,-10.41,-0.14,0.17,0.00,-31.98,-18.69,48.9292180.00,-0.09,0.19,-10.23,-0.11,0.28,0.20,-30.40,-19.57,48.7592231.00,0.39,0.34,-11.02,-0.13,0.36,0.08,-30.40,-19.57,48.7592283.00,0.11,0.19,-10.17,0.06,0.02,-0.23,-30.40,-19.57,48.7592334.00,0.17,0.00,-10.21,0.09,0.01,-0.04,-29.52,-19.39,47.2292386.00,-0.48,0.35,-10.17,0.18,-0.05,-0.56,-29.52,-19.39,47.2292437.00,0.29,-0.21,-10.25,0.02,0.08,-0.02,-28.99,-18.51,44.6792489.00,0.47,-0.58,-10.09,-0.12,0.13,0.52,-28.99,-18.51,44.6792541.00,0.15,0.14,-10.19,-0.14,-0.10,-0.13,-28.99,-18.51,44.6792592.00,-0.09,0.23,-10.25,0.27,-0.06,-0.38,-28.64,-20.63,45.6992644.00,0.22,-0.34,-10.10,0.14,0.02,-0.35,-28.64,-20.63,45.69