time,ax,ay,az,gx,gy,gz,mx,my,mz51.00,0.16,0.15,-10.22,-0.00,0.00,0.00,-27.41,-24.33,44.84104.00,0.14,0.14,-10.21,0.00,0.00,0.00,-27.41,-24.33,44.84156.00,0.15,0.15,-10.20,-0.00,0.00,0.00,-27.06,-25.03,45.86208.00,0.17,0.14,-10.20,-0.00,0.00,0.00,-27.06,-25.03,45.86260.00,0.15,0.13,-10.22,-0.00,0.00,0.00,-26.18,-23.45,44.33312.00,0.16,0.14,-10.19,-0.00,0.00,0.00,-26.18,-23.45,44.33365.00,0.17,0.14,-10.19,-0.00,0.00,0.00,-26.18,-23.45,44.33417.00,0.17,0.14,-10.21,-0.00,0.00,0.00,-27.24,-24.15,45.35469.00,0.15,0.13,-10.21,-0.00,0.00,0.00,-27.24,-24.15,45.35521.00,0.15,0.13,-10.23,-0.00,0.00,0.00,-26.53,-23.80,45.35573.00,0.16,0.14,-10.19,-0.00,0.00,0.00,-26.53,-23.80,45.35626.00,0.16,0.15,-10.21,-0.00,0.00,0.00,-26.53,-23.80,45.35861.00,0.15,0.14,-10.21,-0.00,0.00,0.00,-26.88,-24.86,46.71914.00,0.15,0.15,-10.20,-0.00,0.00,0.00,-27.59,-23.09,45.01966.00,0.16,0.15,-10.20,-0.00,0.00,0.00,-27.59,-23.09,45.011018.00,0.16,0.14,-10.23,-0.00,0.00,0.00,-27.76,-23.98,44.841070.00,0.14,0.13,-10.22,-0.00,0.00,0.00,-27.76,-23.98,44.841123.00,0.17,0.16,-10.21,-0.00,0.00,0.00,-27.76,-23.98,44.841175.00,0.16,0.14,-10.23,0.00,0.00,0.00,-27.94,-23.80,45.691227.00,0.17,0.14,-10.21,-0.00,0.00,0.00,-27.94,-23.80,45.691279.00,0.16,0.13,-10.22,-0.00,0.00,0.00,-26.18,-22.04,44.331331.00,0.16,0.13,-10.21,-0.00,0.01,0.00,-26.18,-22.04,44.331384.00,0.15,0.15,-10.20,-0.00,0.01,0.00,-27.59,-24.15,45.351436.00,0.15,0.16,-10.21,-0.00,0.00,0.00,-27.59,-24.15,45.351488.00,0.21,0.13,-10.22,-0.00,0.00,0.00,-27.59,-24.15,45.351540.00,0.15,0.13,-10.23,-0.00,0.00,0.00,-27.24,-24.86,45.011593.00,0.19,0.13,-10.20,-0.00,0.00,0.00,-27.24,-24.86,45.011645.00,0.15,0.16,-10.20,-0.00,0.00,0.00,-26.71,-23.98,46.541697.00,0.18,0.12,-10.21,-0.00,0.00,0.00,-26.71,-23.98,46.541750.00,0.15,0.16,-10.18,-0.00,0.00,0.00,-26.71,-23.98,46.541802.00,0.17,0.13,-10.22,-0.00,0.00,0.00,-27.06,-22.92,44.161854.00,0.15,0.16,-10.21,-0.00,0.00,0.00,-27.06,-22.92,44.162088.00,0.16,0.12,-10.18,-0.00,0.00,0.00,-26.88,-23.45,44.672141.00,0.16,0.14,-10.23,-0.00,0.00,0.00,-25.83,-24.51,45.012193.00,0.17,0.14,-10.20,-0.00,0.00,0.00,-25.83,-24.51,45.012245.00,0.16,0.14,-10.20,0.00,0.00,0.00,-25.83,-24.51,45.012298.00,0.14,0.14,-10.21,0.00,0.00,0.00,-25.83,-23.45,44.332350.00,0.17,0.14,-10.19,-0.00,0.00,0.00,-25.83,-23.45,44.332402.00,0.17,0.13,-10.20,-0.00,0.00,0.00,-27.41,-25.39,44.842454.00,0.16,0.14,-10.20,-0.00,0.00,0.00,-27.41,-25.39,44.842507.00,0.16,0.14,-10.21,-0.00,0.00,0.00,-27.24,-24.15,44.672559.00,0.16,0.14,-10.20,-0.00,0.00,0.00,-27.24,-24.15,44.672611.00,0.18,0.13,-10.20,-0.00,0.00,0.00,-27.24,-24.15,44.672664.00,0.16,0.13,-10.20,-0.00,0.00,0.00,-26.01,-25.03,45.522716.00,0.16,0.14,-10.19,-0.00,0.00,0.00,-26.01,-25.03,45.522768.00,0.16,0.14,-10.22,-0.00,-0.00,0.00,-28.11,-22.21,44.502820.00,0.16,0.14,-10.20,-0.00,0.00,0.00,-28.11,-22.21,44.502873.00,0.17,0.13,-10.21,-0.00,0.00,0.00,-28.11,-22.21,44.502925.00,0.15,0.14,-10.18,-0.00,0.00,0.00,-28.46,-23.27,45.522977.00,0.16,0.13,-10.21,-0.00,0.00,0.00,-28.46,-23.27,45.523030.00,0.16,0.13,-10.21,-0.00,0.00,0.00,-26.71,-24.33,44.163255.00,0.16,0.14,-10.20,-0.00,0.00,0.00,-27.06,-24.33,46.203308.00,0.16,0.13,-10.20,0.00,0.00,0.00,-28.29,-23.80,45.353360.00,0.89,-1.03,-10.11,-0.01,-0.02,0.01,-28.29,-23.80,45.353413.00,-0.34,0.07,-10.03,0.19,-0.30,1.27,-27.06,-24.68,44.843465.00,-0.16,0.32,-10.20,-0.06,0.28,0.93,-27.06,-24.68,44.843518.00,0.21,0.15,-10.52,-0.03,0.24,0.90,-27.06,-24.68,44.843570.00,-0.02,-0.10,-10.21,0.00,0.01,0.69,-24.95,-24.68,46.543623.00,0.08,0.15,-10.21,0.00,0.00,0.36,-24.95,-24.68,46.543675.00,0.04,0.00,-10.20,-0.00,0.00,0.19,-25.13,-24.86,45.353728.00,0.07,0.12,-10.22,-0.01,0.00,0.20,-25.13,-24.86,45.353780.00,0.13,-0.10,-10.20,-0.01,-0.00,0.30,-23.55,-23.98,45.183832.00,0.01,0.15,-10.22,0.01,0.01,0.33,-23.55,-23.98,45.183885.00,0.08,0.04,-10.19,-0.00,0.00,0.07,-23.02,-26.27,45.693937.00,0.04,0.05,-10.21,-0.00,0.00,0.00,-23.02,-26.27,45.693990.00,0.09,-0.07,-10.22,0.00,0.00,0.00,-23.02,-26.27,45.694042.00,0.09,0.02,-10.21,-0.00,0.00,0.00,-24.25,-24.33,45.524095.00,0.14,0.01,-10.17,-0.00,0.00,0.00,-24.25,-24.33,45.524147.00,0.08,0.03,-10.18,-0.00,0.00,0.00,-23.90,-25.74,46.204200.00,0.13,-0.01,-10.20,0.00,0.00,0.00,-23.90,-25.74,46.204418.00,0.12,-0.02,-10.19,0.00,0.00,0.00,-25.48,-24.15,44.334471.00,0.14,0.04,-10.20,-0.00,0.00,0.00,-25.48,-24.15,44.334523.00,0.09,-0.01,-10.22,0.00,0.00,0.00,-23.19,-25.03,45.184576.00,0.12,0.02,-10.19,-0.00,0.00,0.00,-23.19,-25.03,45.184628.00,0.10,-0.01,-10.20,-0.00,0.00,0.00,-23.19,-25.03,45.184681.00,0.11,0.01,-10.21,0.00,0.00,0.00,-24.42,-24.86,45.694734.00,0.09,0.01,-10.22,-0.00,0.00,0.00,-24.42,-24.86,45.694786.00,0.08,-0.03,-10.20,-0.00,0.00,0.00,-24.78,-24.51,44.674839.00,0.12,0.03,-10.19,-0.00,0.00,0.00,-24.78,-24.51,44.674891.00,0.08,-0.01,-10.20,-0.00,0.00,0.00,-24.78,-25.56,45.014944.00,0.11,0.00,-10.18,0.00,0.00,0.00,-24.78,-25.56,45.014997.00,0.10,-0.00,-10.17,-0.00,0.00,0.00,-24.78,-25.56,45.015049.00,0.07,0.04,-10.15,-0.00,0.00,0.00,-22.67,-25.21,43.995102.00,0.11,0.03,-10.17,-0.00,0.00,0.00,-22.67,-25.21,43.995154.00,0.09,-0.01,-10.18,-0.00,0.00,0.00,-24.25,-25.03,45.525207.00,0.11,0.02,-10.18,0.00,0.00,0.00,-24.25,-25.03,45.525259.00,0.09,-0.01,-10.19,-0.00,0.00,0.00,-24.25,-25.03,45.525312.00,0.08,-0.00,-10.21,-0.00,0.00,0.00,-23.55,-25.03,44.505365.00,0.11,0.00,-10.19,-0.00,0.00,0.00,-23.55,-25.03,44.505598.00,0.11,-0.01,-10.21,-0.00,0.00,0.00,-23.19,-24.68,43.485651.00,0.11,0.00,-10.22,-0.00,0.00,0.00,-23.55,-25.39,44.165704.00,0.09,0.01,-10.20,-0.00,0.00,0.00,-23.55,-25.39,44.165756.00,0.09,0.00,-10.20,-0.00,0.00,0.00,-23.55,-25.39,44.165809.00,0.10,0.00,-10.20,-0.00,0.00,0.00,-24.95,-25.03,44.845862.00,0.12,0.01,-10.20,-0.00,0.00,0.00,-24.95,-25.03,44.845914.00,0.11,0.00,-10.20,-0.00,0.00,0.00,-24.78,-25.56,45.015967.00,0.11,0.01,-10.19,-0.00,0.00,0.00,-24.78,-25.56,45.016020.00,0.09,0.00,-10.21,-0.00,0.00,0.00,-24.78,-25.56,45.016072.00,0.10,0.00,-10.19,-0.00,0.00,0.00,-23.72,-26.62,45.016125.00,0.10,-0.01,-10.21,-0.00,0.00,0.00,-23.72,-26.62,45.016178.00,0.10,0.02,-10.21,-0.00,0.00,0.00,-24.07,-25.56,45.356230.00,0.09,-0.00,-10.22,-0.00,0.00,0.00,-24.07,-25.56,45.356283.00,0.12,0.00,-10.21,-0.00,0.00,0.00,-24.25,-24.68,44.506336.00,0.10,0.01,-10.18,-0.00,0.00,0.00,-24.25,-24.68,44.506388.00,0.10,-0.01,-10.20,-0.00,0.00,0.00,-24.25,-24.68,44.506441.00,0.11,0.01,-10.23,-0.00,0.00,0.00,-23.72,-24.86,44.676494.00,0.12,-0.01,-10.19,-0.00,0.00,0.00,-23.72,-24.86,44.676547.00,0.10,0.02,-10.20,-0.00,0.00,0.00,-23.72,-24.51,44.336785.00,0.11,-0.04,-10.19,0.00,0.00,0.00,-24.07,-25.56,44.676838.00,0.08,0.02,-10.19,-0.00,0.00,0.00,-24.07,-25.56,44.676891.00,0.16,0.02,-10.19,0.00,0.00,0.00,-24.07,-25.56,44.676943.00,0.08,-0.07,-10.21,-0.00,0.00,0.00,-25.13,-25.56,45.356996.00,0.11,-0.02,-10.20,0.00,0.00,0.00,-25.13,-25.56,45.357049.00,0.10,0.03,-10.20,-0.00,0.00,0.00,-24.60,-25.03,44.847102.00,0.08,0.03,-10.20,-0.00,0.00,0.00,-24.60,-25.03,44.847154.00,0.10,-0.02,-10.23,-0.00,0.00,0.00,-23.72,-24.51,45.017207.00,0.10,0.00,-10.21,-0.00,0.00,0.00,-23.72,-24.51,45.017260.00,0.10,-0.04,-10.22,-0.00,0.00,0.00,-23.72,-24.51,45.017313.00,0.11,0.03,-10.21,-0.00,0.00,0.00,-23.37,-24.86,48.417366.00,0.10,-0.01,-10.19,-0.00,0.00,0.00,-23.37,-24.86,48.417418.00,0.09,0.03,-10.23,-0.00,-0.00,0.00,-24.78,-25.21,46.717471.00,0.11,-0.02,-10.20,-0.00,0.00,0.00,-24.78,-25.21,46.717524.00,0.10,0.03,-10.19,-0.00,-0.00,0.00,-24.78,-25.21,46.717577.00,0.11,-0.02,-10.16,-0.00,0.00,0.00,-23.72,-26.27,45.357630.00,0.12,0.02,-10.18,-0.00,0.00,0.00,-23.72,-26.27,45.357682.00,0.09,0.00,-10.22,-0.00,0.00,0.00,-23.90,-24.33,45.527735.00,0.10,0.02,-10.19,-0.00,0.00,0.00,-23.90,-24.33,45.527788.00,0.11,0.01,-10.20,-0.00,0.00,0.00,-25.48,-24.51,45.698011.00,0.09,-0.00,-10.19,-0.00,0.00,0.00,-23.19,-25.74,44.848064.00,0.11,0.01,-10.22,0.00,0.00,0.00,-23.72,-25.21,47.058117.00,0.11,-0.00,-10.21,-0.00,0.00,0.00,-23.72,-25.21,47.058170.00,0.11,-0.00,-10.21,-0.00,0.00,0.00,-23.02,-25.56,45.698222.00,0.10,-0.01,-10.20,-0.00,0.00,0.00,-23.02,-25.56,45.698275.00,0.11,0.00,-10.19,0.00,0.00,0.00,-23.02,-25.56,45.698328.00,0.11,-0.00,-10.18,-0.00,0.00,0.00,-22.84,-24.33,45.528381.00,0.10,0.01,-10.19,-0.00,0.00,0.00,-22.84,-24.33,45.528434.00,0.09,0.01,-10.22,-0.00,0.00,0.00,-23.72,-25.92,46.038487.00,0.11,0.01,-10.20,-0.00,0.00,0.00,-23.72,-25.92,46.038540.00,0.11,-0.01,-10.23,0.00,0.00,0.00,-24.25,-25.39,46.208592.00,-0.99,-0.02,-10.11,0.02,-0.02,-0.29,-24.25,-25.39,46.208645.00,0.46,0.02,-10.20,0.04,0.01,-0.94,-24.25,-25.39,46.208698.00,0.11,0.04,-10.21,-0.02,-0.01,-0.03,-24.95,-25.74,47.228751.00,0.10,0.00,-10.21,-0.01,-0.00,0.00,-24.95,-25.74,47.228804.00,0.16,-0.10,-10.20,0.01,0.01,0.00,-23.55,-25.03,45.188857.00,0.11,-0.02,-10.19,-0.00,0.00,0.00,-23.55,-25.03,45.188910.00,0.12,0.01,-10.20,-0.00,0.00,0.00,-22.84,-25.39,45.188963.00,0.10,0.00,-10.22,-0.00,0.00,0.00,-22.84,-25.39,45.189190.00,0.12,-0.01,-10.21,-0.00,0.00,0.00,-22.67,-24.51,45.019243.00,0.11,-0.01,-10.20,-0.00,0.00,0.00,-22.67,-24.51,45.019296.00,0.11,0.00,-10.20,-0.00,0.00,0.00,-24.60,-25.03,46.209349.00,0.11,-0.01,-10.20,-0.00,0.00,0.00,-24.60,-25.03,46.209402.00,0.11,-0.01,-10.19,-0.00,0.00,0.00,-24.60,-25.03,46.209455.00,0.67,-0.55,-10.54,0.02,-0.04,0.18,-24.78,-25.56,45.699508.00,-0.18,-0.43,-9.80,0.10,-0.27,1.09,-24.78,-25.56,45.699561.00,-0.21,0.36,-10.21,0.00,0.01,1.08,-24.60,-25.74,46.209614.00,-0.06,-0.10,-10.19,0.00,0.01,1.07,-24.60,-25.74,46.209667.00,-0.30,0.36,-10.15,0.02,0.01,0.66,-23.72,-24.86,44.679720.00,-0.09,-0.09,-10.21,0.00,0.03,0.47,-23.72,-24.86,44.679773.00,-0.12,0.05,-10.20,0.00,0.01,0.18,-23.72,-24.86,44.679826.00,-0.11,-0.00,-10.20,-0.00,0.00,0.09,-23.19,-24.68,45.529879.00,-0.10,-0.07,-10.20,-0.00,-0.00,0.00,-23.19,-24.68,45.529932.00,-0.47,-0.15,-9.53,0.00,0.39,-0.10,-21.61,-26.27,46.379985.00,-0.35,0.23,-10.05,-0.11,0.00,-0.09,-21.61,-26.27,46.3710038.00,0.12,-0.08,-10.18,-0.00,0.00,0.00,-19.86,-25.56,45.0110091.00,0.11,-0.03,-10.21,-0.00,0.00,0.00,-19.86,-25.56,45.0110144.00,0.11,-0.01,-10.20,-0.00,0.00,0.00,-19.86,-25.56,45.0110381.00,2.13,-1.09,-11.95,-0.02,-0.04,0.10,-20.73,-26.44,46.8810434.00,-0.11,0.77,-10.40,0.45,-0.14,2.00,-23.37,-24.86,45.6910488.00,-0.81,0.37,-10.16,0.29,0.15,1.85,-23.37,-24.86,45.6910541.00,0.38,-1.48,-9.91,0.30,0.47,2.14,-17.75,-22.74,45.0110594.00,0.17,0.31,-11.87,1.84,-0.15,0.23,-17.75,-22.74,45.0110647.00,-0.35,-4.26,-9.72,1.79,-0.27,0.23,-17.75,-22.74,45.0110700.00,-0.73,-2.09,-11.96,1.07,-0.62,0.84,-16.52,-13.40,46.2010753.00,-0.97,-4.64,-12.35,1.41,-1.35,0.72,-16.52,-13.40,46.2010806.00,-1.90,-3.11,-14.34,1.24,-2.11,1.18,-22.67,-6.17,46.7110859.00,-1.15,-6.96,-22.08,2.14,-3.99,1.14,-22.67,-6.17,46.7110912.00,-3.32,-7.38,-10.75,2.44,-4.35,1.19,-46.04,-1.06,34.3110965.00,-3.46,-8.60,-3.83,3.02,-4.35,2.79,-46.04,-1.06,34.3111018.00,-0.02,1.82,3.31,0.65,-4.35,4.40,-46.04,-1.06,34.3111072.00,2.65,10.79,16.37,-2.25,-2.45,2.49,-65.54,-17.81,5.9411125.00,9.65,10.16,17.00,-4.38,2.82,0.22,-65.54,-17.81,5.9411178.00,15.40,8.48,2.77,-3.27,4.37,-2.18,-62.90,-23.62,13.2511231.00,3.55,-14.76,-33.05,1.07,4.37,-4.32,-62.90,-23.62,13.2511284.00,-5.36,-36.70,-39.23,1.78,2.90,-3.23,-62.90,-23.62,13.2511337.00,-8.72,-13.16,-27.65,3.55,-4.35,2.86,-37.25,-1.06,42.8011521.00,2.81,6.44,7.88,-2.08,-4.35,1.64,-60.27,1.94,14.4411574.00,0.91,2.49,6.07,-0.08,-1.80,0.60,-57.28,-15.51,-20.0411628.00,-0.76,0.40,6.01,0.95,-0.65,0.37,-57.28,-15.51,-20.0411681.00,-2.24,0.09,1.38,0.10,-1.68,-1.49,-53.42,-16.22,-26.1611734.00,-4.48,0.15,8.76,4.35,-2.43,0.72,-53.42,-16.22,-26.1611787.00,-2.64,8.27,20.30,4.35,-2.06,2.47,-53.42,-16.22,-26.1611840.00,-5.87,6.42,6.59,-0.34,1.01,-2.59,-44.45,-46.72,-18.5111893.00,-11.15,6.98,7.96,1.28,0.97,-3.78,-44.45,-46.72,-18.5111947.00,-2.79,5.59,9.85,1.57,-0.46,-4.32,-54.47,-39.84,-15.2912000.00,-6.77,-1.11,6.16,-2.59,0.36,-2.52,-54.47,-39.84,-15.2912053.00,-7.99,1.57,8.29,0.13,0.04,-0.61,-57.81,-22.04,-19.5312106.00,-5.04,-0.26,6.07,2.50,0.45,0.95,-57.81,-22.04,-19.5312159.00,-9.92,6.29,7.75,0.40,0.88,0.62,-57.81,-22.04,-19.5312213.00,-6.97,2.67,4.89,-1.78,1.32,-0.91,-58.51,-28.74,-16.1412266.00,-6.61,1.77,10.83,-3.46,1.03,-1.48,-58.51,-28.74,-16.1412319.00,-7.40,-1.48,3.17,-1.97,1.48,-0.67,-62.20,-17.28,-12.2312372.00,-7.00,-0.58,4.52,0.09,0.57,0.38,-62.20,-17.28,-12.2312425.00,-8.35,1.70,5.13,0.23,0.11,0.59,-63.96,-16.22,-8.1512479.00,-9.95,-0.04,4.46,-0.00,0.59,0.26,-63.96,-16.22,-8.1512700.00,-8.16,-0.19,5.12,0.07,0.07,0.28,-64.31,-16.92,-6.4512754.00,-9.18,-0.03,5.02,0.40,0.31,0.31,-64.31,-16.92,-6.4512807.00,-8.87,0.65,4.22,0.30,0.14,0.03,-64.49,-19.92,-3.9112860.00,-9.88,0.07,4.91,0.00,0.24,-1.04,-64.49,-19.92,-3.9112913.00,-8.35,-2.11,4.00,0.03,-0.18,-0.55,-63.78,-16.40,-2.5512967.00,-8.31,0.85,5.56,0.14,-0.29,0.05,-63.78,-16.40,-2.5513020.00,-9.04,0.34,3.81,0.10,0.23,0.21,-63.78,-16.40,-2.5513073.00,-8.99,1.48,3.17,-0.15,0.42,0.19,-63.96,-15.87,-4.0813127.00,-8.76,0.79,3.93,-0.19,0.08,-0.15,-63.96,-15.87,-4.0813180.00,-8.56,-0.19,4.07,-0.05,-0.55,-0.04,-64.31,-17.63,-3.4013233.00,-7.62,-0.50,5.20,-0.30,-0.78,0.23,-64.31,-17.63,-3.4013287.00,-8.05,0.01,6.49,-0.07,-0.25,0.31,-64.31,-17.63,-3.4013340.00,-12.56,0.14,3.38,0.41,0.79,0.31,-64.31,-16.22,-5.7713393.00,-9.19,1.67,4.56,-0.00,0.26,0.14,-64.31,-16.22,-5.7713446.00,-8.37,-0.49,3.94,-0.22,-0.02,-0.04,-63.96,-18.69,-3.7413500.00,-7.17,-0.19,5.06,-0.59,-0.29,-0.79,-63.96,-18.69,-3.7413553.00,-7.35,-1.61,6.16,0.24,0.80,-0.61,-64.84,-15.69,-4.5913607.00,-8.82,-0.59,2.33,0.36,0.77,0.07,-64.84,-15.69,-4.5913660.00,-8.12,0.35,2.05,0.21,0.22,0.28,-64.84,-15.69,-4.5913885.00,-8.76,0.52,2.28,-0.22,0.51,-0.24,-64.31,-17.98,-3.7413938.00,-10.07,1.57,2.73,-0.13,-0.96,0.48,-66.24,-18.16,-1.1913992.00,-8.24,0.72,4.22,-0.35,0.03,0.32,-66.24,-18.16,-1.1914045.00,-7.64,-0.99,5.99,-0.29,-0.31,-0.05,-66.24,-18.16,-1.1914099.00,-8.40,-0.12,4.86,0.23,0.14,0.21,-65.19,-17.45,-4.2514152.00,-9.21,0.77,4.22,0.04,0.47,-0.09,-65.19,-17.45,-4.2514205.00,-9.06,-0.07,3.40,0.04,0.19,-0.01,-65.36,-17.98,-2.0414259.00,-8.57,0.82,4.33,0.22,0.02,0.52,-65.36,-17.98,-2.0414312.00,-8.97,0.69,4.23,0.10,-0.10,0.10,-65.19,-19.92,-1.5314366.00,-10.02,1.50,5.19,-0.50,0.07,-0.73,-65.19,-19.92,-1.5314419.00,-8.25,-1.11,2.28,0.19,0.99,-1.21,-65.01,-14.10,0.3414472.00,-8.48,-1.00,2.32,-0.01,0.03,0.15,-65.01,-14.10,0.3414526.00,-8.82,-1.34,4.64,-0.31,-1.12,1.04,-65.01,-14.10,0.3414579.00,-9.32,-0.10,3.49,-0.07,0.01,0.06,-63.43,-16.04,-1.8714633.00,-8.67,-0.54,3.77,-0.24,0.31,0.01,-63.43,-16.04,-1.8714686.00,-9.03,-0.28,3.41,0.01,0.14,0.21,-63.61,-16.92,-1.0214740.00,-8.97,0.31,3.82,0.08,0.13,-0.00,-63.61,-16.92,-1.0214793.00,-8.91,-0.07,3.89,0.13,0.14,-0.02,-65.36,-16.92,0.3414846.00,-8.50,-0.10,3.28,0.24,0.17,0.15,-65.36,-16.92,0.3415092.00,-8.16,0.16,2.58,0.08,0.20,0.20,-63.96,-18.33,-0.3415145.00,-9.58,0.94,4.67,-0.23,-0.18,0.48,-63.96,-18.33,-0.3415199.00,-9.77,-0.23,4.82,-0.13,0.17,-0.34,-64.49,-18.51,0.5115252.00,-9.19,0.91,3.06,-0.06,0.13,0.08,-64.49,-18.51,0.5115306.00,-8.98,0.21,3.79,-0.12,-0.12,0.35,-65.01,-19.04,0.6815359.00,-9.55,0.61,3.89,-0.16,0.13,-0.22,-65.01,-19.04,0.6815413.00,-9.12,-0.13,3.31,-0.07,0.18,-0.14,-65.01,-19.04,0.6815466.00,-8.44,0.02,3.41,0.10,0.05,0.26,-65.01,-17.63,1.0215520.00,-9.26,1.35,2.86,-0.03,-0.23,0.59,-65.01,-17.63,1.0215574.00,-9.99,1.01,3.77,-0.07,0.06,0.04,-65.01,-18.69,1.3615627.00,-9.01,-3.67,6.26,0.02,0.41,-0.86,-65.01,-18.69,1.3615680.00,-9.14,-0.34,3.22,-0.11,0.24,-0.23,-64.66,-17.98,3.7415734.00,-9.51,0.51,1.97,0.24,-0.36,0.20,-64.66,-17.98,3.7415788.00,-8.31,-0.07,5.68,-0.04,-0.76,0.11,-64.66,-17.98,3.7415841.00,-9.91,-0.38,2.74,-0.05,0.68,0.23,-63.08,-18.51,-1.1915895.00,-9.43,0.03,4.50,-0.13,-0.11,-0.02,-63.08,-18.51,-1.1915948.00,-8.91,0.74,2.66,-0.11,-0.86,-0.16,-64.84,-19.22,1.8716002.00,-7.08,-0.48,8.12,-0.35,-0.94,0.02,-64.84,-19.22,1.8716055.00,-9.83,1.93,-0.60,0.03,1.06,0.10,-63.96,-19.75,-0.6816286.00,-8.59,-1.49,6.74,0.54,0.07,-0.18,-63.43,-16.75,-5.6116340.00,-8.44,0.17,4.95,0.18,-0.02,-0.04,-63.26,-17.98,-4.0816393.00,-9.40,0.56,3.25,-0.16,-0.12,-0.00,-63.26,-17.98,-4.0816447.00,-8.15,-1.13,5.35,0.03,-0.10,-0.03,-61.85,-17.28,-5.7716500.00,-8.59,0.32,4.74,0.22,-0.00,0.06,-61.85,-17.28,-5.7716554.00,-8.71,0.17,4.48,0.13,0.03,0.01,-61.85,-17.28,-5.7716608.00,-8.61,-0.82,4.75,0.02,0.09,-0.07,-63.61,-16.22,-4.7616661.00,-8.58,0.39,5.04,0.11,0.15,0.03,-63.61,-16.22,-4.7616715.00,-8.87,-0.50,3.53,0.16,0.29,-0.17,-63.08,-17.45,-3.5716768.00,-8.61,-1.02,4.27,-0.05,0.05,0.05,-63.08,-17.45,-3.5716822.00,-8.16,-0.44,3.52,0.05,-0.09,0.35,-62.73,-16.40,-2.2116876.00,-8.71,-0.68,4.65,0.05,-0.07,0.09,-62.73,-16.40,-2.2116929.00,-8.82,0.56,5.59,0.00,-0.02,0.06,-62.73,-16.40,-2.2116983.00,-9.02,-1.91,4.56,0.12,0.40,-0.50,-63.08,-19.22,-4.5917036.00,-8.21,-1.37,3.75,-0.05,0.12,-0.16,-63.08,-19.22,-4.5917090.00,-8.92,-0.10,3.21,-0.11,-0.44,0.20,-63.78,-16.75,-1.1917144.00,-7.80,-0.72,7.41,-0.15,-0.23,0.25,-63.78,-16.75,-1.1917197.00,-9.26,2.43,2.07,-0.13,0.21,0.36,-64.49,-18.51,-4.2517251.00,-9.07,-0.25,4.21,-0.19,0.07,0.09,-64.49,-18.51,-4.2517476.00,-8.93,0.31,4.53,-0.05,0.10,-0.19,-62.90,-19.04,-2.3817529.00,-8.80,-0.30,4.48,0.01,0.19,-0.39,-62.90,-19.04,-2.3817583.00,-8.77,-0.37,3.13,0.11,0.25,-0.09,-63.78,-17.45,-1.1917637.00,-8.25,-0.73,4.10,0.16,0.10,0.23,-63.78,-17.45,-1.1917690.00,-8.92,0.12,4.64,-0.04,-0.12,0.43,-65.01,-19.04,-2.0417744.00,-9.14,0.77,3.90,-0.20,-0.11,-0.04,-65.01,-19.04,-2.0417798.00,-8.64,-0.99,3.00,0.02,0.28,-0.51,-65.01,-19.04,-2.0417851.00,-8.44,-2.01,4.28,0.06,0.22,-0.05,-64.49,-16.75,-1.1917905.00,-9.57,0.38,4.85,0.12,-0.03,0.60,-64.49,-16.75,-1.1917959.00,-9.53,1.40,3.41,0.20,0.24,-0.22,-63.78,-18.51,-0.5118012.00,-9.47,-1.29,7.68,0.03,0.01,-0.40,-63.78,-18.51,-0.5118066.00,-9.32,0.12,4.90,-0.08,-0.43,0.31,-63.78,-18.86,-0.5118120.00,-8.67,0.72,3.02,-0.31,-0.80,0.18,-63.78,-18.86,-0.5118173.00,-7.01,-1.16,6.74,-0.51,-0.88,0.20,-63.78,-18.86,-0.5118227.00,-9.65,0.22,2.15,0.11,0.74,0.16,-63.61,-19.39,-3.4018281.00,-9.38,-0.13,3.42,-0.21,0.11,-0.16,-63.61,-19.39,-3.4018335.00,-9.62,-0.83,4.52,-0.20,-0.34,-0.25,-63.26,-18.33,-2.7218388.00,-7.69,0.41,4.82,-0.45,-0.11,-0.27,-63.26,-18.33,-2.7218442.00,-7.68,-2.07,6.21,-0.18,-0.18,0.01,-65.01,-15.51,-3.7418496.00,-9.27,-0.34,3.60,0.50,0.18,0.30,-65.01,-15.51,-3.7418732.00,-9.55,1.69,3.94,-0.05,0.18,-0.05,-64.66,-20.80,-2.0418785.00,-8.67,-0.45,4.23,0.09,-0.02,-0.51,-64.66,-20.80,-2.0418839.00,-8.64,0.15,3.40,-0.13,0.15,0.35,-64.84,-19.22,-2.5518893.00,-8.52,-0.34,3.83,-0.09,0.21,0.01,-64.84,-19.22,-2.5518947.00,-8.25,-1.54,4.69,0.19,-0.00,-0.50,-62.90,-18.69,-4.4219001.00,-9.24,1.95,2.81,-0.05,-0.07,0.25,-62.90,-18.69,-4.4219054.00,-9.02,-0.12,4.06,-0.24,0.07,0.01,-62.90,-18.69,-4.4219109.00,-9.17,0.34,4.30,-0.28,0.09,0.13,-65.72,-18.69,-1.3619167.00,-8.56,-0.87,4.86,0.11,0.07,0.13,-65.72,-18.69,-1.3619219.00,-8.51,0.36,4.16,0.03,-0.16,0.33,-63.43,-19.92,-1.1919270.00,-9.11,0.78,4.39,-0.18,-0.13,-0.02,-63.43,-19.92,-1.1919321.00,-8.87,-0.88,3.88,-0.21,0.28,-0.52,-64.84,-18.86,-2.2119373.00,-8.32,-0.29,3.07,0.10,0.35,0.01,-64.84,-18.86,-2.2119424.00,-9.07,0.26,4.56,-0.08,-0.03,0.32,-64.84,-18.86,-2.2119475.00,-9.37,0.76,3.97,0.00,0.09,0.08,-64.49,-19.22,-0.5119527.00,-9.06,0.59,3.19,0.05,0.19,-0.10,-64.49,-19.22,-0.5119578.00,-8.87,-0.13,3.85,0.13,0.08,0.17,-66.24,-18.86,-0.1719755.00,-9.24,-0.12,3.74,-0.20,0.11,-0.51,-64.84,-20.98,-1.8719806.00,-8.41,-0.82,3.42,0.02,0.26,0.05,-64.84,-20.98,-1.8719858.00,-9.48,1.07,3.98,-0.10,-0.10,0.51,-65.01,-19.39,0.0019909.00,-9.29,0.80,3.27,-0.09,0.07,0.16,-65.01,-19.39,0.0019960.00,-9.11,0.66,3.97,-0.29,0.11,-0.38,-65.36,-20.45,0.0020012.00,-9.30,0.52,4.04,0.11,0.25,0.17,-65.36,-20.45,0.0020063.00,-8.94,0.18,3.22,0.02,-0.11,0.49,-65.89,-19.22,-0.8520115.00,-9.09,0.26,3.13,-0.13,0.03,0.05,-65.89,-19.22,-0.8520166.00,-8.92,-1.25,2.58,-0.26,0.25,-0.46,-65.89,-19.22,-0.8520217.00,-9.07,-0.80,2.84,-0.00,0.21,-0.05,-65.01,-19.75,0.6820269.00,-9.27,0.06,3.64,-0.04,-0.14,0.48,-65.01,-19.75,0.6820320.00,-9.84,2.24,4.15,-0.28,0.16,-0.14,-64.66,-21.51,0.3420372.00,-9.27,-0.30,3.60,-0.46,0.19,-0.42,-64.66,-21.51,0.3420423.00,-10.58,-0.29,1.80,0.22,-0.33,0.06,-64.66,-21.51,0.3420474.00,-9.57,-0.72,1.96,0.20,-1.43,0.03,-65.01,-20.45,1.0220526.00,-7.26,0.02,7.45,0.04,-1.16,0.06,-65.01,-20.45,1.0220577.00,-7.32,0.28,5.08,-0.85,-0.41,0.34,-63.96,-20.80,-6.4520629.00,-9.33,-1.89,3.61,-0.02,0.06,-0.40,-63.96,-20.80,-6.4520680.00,-9.58,0.59,5.08,2.40,-0.23,-0.28,-63.96,-20.80,-6.4520900.00,-8.24,-2.01,4.26,-2.33,1.34,-1.79,-62.90,-19.39,-10.5320952.00,-7.05,-5.75,4.65,-0.90,1.24,-0.74,-63.26,-5.99,-4.7621003.00,-8.38,-2.08,1.13,0.25,-0.06,1.17,-63.26,-5.99,-4.7621055.00,-8.13,-2.28,3.28,0.22,-0.34,1.11,-63.26,-5.99,-4.7621107.00,-8.26,-2.12,3.50,0.54,0.31,0.71,-65.72,-11.28,-2.7221158.00,-9.42,0.05,3.92,0.09,0.61,0.35,-65.72,-11.28,-2.7221209.00,-7.48,0.14,3.35,-0.22,-0.34,0.25,-63.96,-13.75,0.0021261.00,-7.84,-3.07,3.99,-0.03,-0.08,0.06,-63.96,-13.75,0.0021312.00,-13.41,-3.00,3.33,0.26,0.41,0.31,-63.96,-13.75,0.0021364.00,-9.94,-0.33,3.10,-0.10,0.17,0.27,-64.66,-15.16,-1.7021415.00,-9.58,1.92,1.40,-0.25,0.04,0.29,-64.66,-15.16,-1.7021467.00,-7.81,-3.13,4.70,0.39,-0.34,-0.09,-65.36,-15.16,0.0021518.00,-9.52,-1.12,2.55,0.31,0.20,0.16,-65.36,-15.16,0.0021570.00,-9.45,-0.97,3.72,-0.19,0.38,-0.45,-65.01,-14.46,-1.3621621.00,-8.15,-2.69,2.57,0.33,0.41,-0.35,-65.01,-14.46,-1.3621673.00,-9.04,-2.31,3.06,0.28,0.00,-0.01,-65.01,-14.46,-1.3621724.00,-9.44,-1.63,3.60,-0.33,-0.38,0.27,-65.54,-13.22,0.1721776.00,-8.81,-2.46,3.42,-0.39,0.04,0.16,-65.54,-13.22,0.1721827.00,-9.37,-1.09,2.99,0.01,0.18,0.12,-66.95,-13.93,1.1921879.00,-8.69,-2.13,3.12,0.15,0.04,0.21,-66.95,-13.93,1.1922103.00,-9.94,0.52,2.41,-0.17,-0.89,-0.41,-64.66,-13.75,2.0422154.00,-8.77,-2.69,2.51,-0.03,-0.51,-0.18,-64.66,-13.75,2.0422206.00,-7.58,-3.12,3.90,-0.31,-0.14,-0.30,-65.89,-11.81,-1.8722258.00,-8.15,-5.04,5.47,-0.07,-0.58,-0.45,-65.89,-11.81,-1.8722309.00,-8.67,-2.32,3.63,0.45,0.17,0.15,-65.89,-11.81,-1.8722361.00,-9.66,-0.41,3.17,0.01,0.07,0.14,-65.01,-12.34,-2.3822413.00,-8.79,-2.68,3.28,-0.23,0.02,-0.12,-65.01,-12.34,-2.3822464.00,-8.52,-2.70,3.37,-0.00,0.23,0.28,-65.89,-13.22,-2.5522516.00,-8.85,-1.97,2.78,0.20,-0.04,0.16,-65.89,-13.22,-2.5522568.00,-9.32,-0.66,2.88,0.04,-0.03,0.14,-65.89,-13.22,-2.5522619.00,-9.33,-1.93,3.33,-0.12,0.22,-0.30,-65.54,-13.93,-1.1922671.00,-8.60,-2.76,4.51,0.21,0.16,-0.26,-65.54,-13.93,-1.1922723.00,-9.09,-2.75,2.67,-0.26,-0.05,-0.05,-66.07,-10.93,-0.3422774.00,-9.29,-2.86,3.91,-0.30,-0.17,0.34,-66.07,-10.93,-0.3422826.00,-8.93,-2.20,2.48,-0.02,0.06,0.10,-64.84,-13.57,0.1722878.00,-8.83,-2.15,2.88,0.06,0.33,-0.24,-64.84,-13.57,0.1722929.00,-8.73,-2.31,3.08,0.12,0.11,0.04,-64.84,-13.57,0.1722981.00,-8.99,-2.41,3.04,-0.03,-0.26,0.32,-64.13,-12.16,-0.5123033.00,-9.23,-1.66,2.91,0.04,-0.08,0.20,-64.13,-12.16,-0.5123247.00,-9.56,-1.32,3.54,-0.01,0.00,0.07,-66.77,-13.75,1.7023299.00,-9.62,-0.27,4.37,0.04,0.23,-0.15,-66.77,-13.75,1.7023350.00,-8.89,-2.56,2.63,0.15,0.13,0.07,-66.24,-13.57,0.8523402.00,-9.52,-1.72,2.96,-0.03,-0.13,0.40,-66.24,-13.57,0.8523454.00,-9.30,-1.10,2.05,0.05,0.20,0.03,-66.24,-15.34,0.8523506.00,-8.89,-2.65,2.84,0.11,0.30,-0.47,-66.24,-15.34,0.8523557.00,-9.11,-2.27,1.95,-0.09,0.04,0.04,-66.24,-15.34,0.8523609.00,-9.01,-2.12,1.93,-0.17,-0.13,0.20,-65.36,-14.10,1.7023661.00,-10.37,0.17,1.94,-0.23,-0.57,-0.19,-65.36,-14.10,1.7023713.00,-6.96,-4.44,4.93,-0.35,-0.80,-0.77,-65.72,-11.99,-1.7023764.00,-8.15,-3.79,4.99,-0.00,0.30,0.60,-65.72,-11.99,-1.7023816.00,-9.90,0.28,1.99,0.12,0.74,0.67,-65.72,-11.99,-1.7023868.00,-9.55,-3.52,1.71,-0.05,-0.16,-0.48,-65.36,-15.51,0.3423920.00,-9.27,-0.38,3.95,0.13,-0.73,-0.59,-65.36,-15.51,0.3423971.00,-9.55,-0.51,2.21,-0.10,0.35,0.28,-66.07,-13.05,-1.0224023.00,-7.78,-3.91,4.72,0.07,-0.16,-0.13,-66.07,-13.05,-1.0224075.00,-7.55,-4.52,4.20,0.33,-0.11,-0.01,-66.07,-13.05,-1.0224127.00,-9.76,-0.47,3.08,0.38,0.04,0.24,-65.19,-12.87,-2.5524179.00,-9.91,-1.06,3.26,-0.14,0.00,-0.03,-65.19,-12.87,-2.5524402.00,-8.48,-2.49,3.22,-0.16,0.02,0.32,-64.66,-13.40,-1.7024454.00,-9.32,-2.17,3.30,0.06,0.05,0.32,-64.66,-13.40,-1.7024506.00,-8.51,-3.36,1.73,0.08,0.48,-0.57,-65.54,-14.63,-1.1924558.00,-8.65,-2.37,2.76,0.08,0.22,-0.31,-65.54,-14.63,-1.1924610.00,-8.68,-2.32,3.37,-0.26,0.03,0.25,-66.77,-12.34,-0.6824662.00,-8.99,-2.26,2.93,-0.05,0.27,-0.07,-66.77,-12.34,-0.6824713.00,-8.41,-3.88,2.42,0.29,0.30,-0.49,-66.07,-12.69,-0.6824765.00,-9.57,-0.31,2.53,-0.16,-0.10,0.18,-66.07,-12.69,-0.6824817.00,-9.25,-1.56,2.59,-0.35,-0.21,0.36,-66.07,-12.69,-0.6824869.00,-8.76,-3.07,3.94,-0.19,0.05,0.13,-65.54,-12.87,-0.1724921.00,-10.26,-0.92,4.80,0.12,0.35,-0.23,-65.54,-12.87,-0.1724973.00,-8.87,-2.47,1.22,-0.07,-0.43,-0.41,-65.89,-13.22,-0.1725025.00,-7.08,-4.46,5.24,-0.35,-0.34,0.57,-65.89,-13.22,-0.1725077.00,-9.76,-0.27,1.02,-0.10,0.33,0.64,-65.89,-13.22,-0.1725128.00,-9.41,-1.71,2.83,-0.21,0.00,-0.48,-66.07,-14.81,-0.6825180.00,-8.10,-4.31,3.95,0.06,0.45,-0.37,-66.07,-14.81,-0.6825232.00,-9.58,-0.05,1.37,0.20,0.37,0.41,-65.54,-13.93,0.5125284.00,-9.26,-1.21,3.90,0.19,-0.32,0.33,-65.54,-13.93,0.5125336.00,-9.43,-2.12,4.45,-0.06,-0.40,0.26,-65.89,-14.63,0.5125561.00,-9.18,-1.75,2.89,-0.15,-0.06,0.12,-65.54,-13.57,1.1925613.00,-9.06,-2.55,3.01,-0.11,0.26,-0.32,-66.77,-15.16,1.3625665.00,-10.07,-0.01,1.92,-0.25,-0.12,0.42,-66.77,-15.16,1.3625717.00,-9.16,-2.49,3.19,-0.24,-0.25,0.24,-65.54,-14.99,1.5325769.00,-9.82,-1.28,2.52,-0.21,0.32,-0.16,-65.54,-14.99,1.5325821.00,-9.41,-1.14,2.16,-0.10,0.25,0.05,-65.54,-14.99,1.5325873.00,-12.02,0.51,0.53,0.13,-0.74,0.30,-68.00,-15.69,2.2125925.00,-7.87,-3.48,6.17,0.14,-1.87,-0.68,-68.00,-15.69,2.2125977.00,-8.98,-3.93,5.55,0.19,-0.88,-0.21,-65.54,-13.57,-3.2326029.00,-6.89,-2.70,5.30,0.33,0.22,-0.93,-65.54,-13.57,-3.2326081.00,-7.59,-3.44,1.95,0.26,0.77,-1.01,-65.54,-13.57,-3.2326133.00,-7.37,-2.38,3.08,0.05,0.13,-0.69,-64.13,-10.40,-3.9126185.00,-7.85,-3.78,3.15,0.28,-0.13,0.30,-64.13,-10.40,-3.9126236.00,-8.07,-1.86,4.21,0.55,-0.14,1.25,-65.01,-7.40,-5.1026288.00,-9.29,-2.91,6.69,-0.18,-0.36,-0.32,-65.01,-7.40,-5.1026340.00,-8.81,-4.83,4.15,0.32,0.37,0.08,-65.01,-7.40,-5.1026392.00,-7.92,-0.39,3.92,0.17,0.12,0.16,-66.07,-10.93,-5.1026444.00,-8.46,-3.09,4.36,0.11,0.25,-0.00,-66.07,-10.93,-5.1026496.00,-9.92,-0.92,2.29,0.11,0.11,0.41,-65.89,-11.81,-3.2326725.00,-9.36,-0.51,2.74,-0.13,0.20,0.22,-65.54,-14.63,-3.5726777.00,-9.36,0.46,2.52,-0.25,-0.03,0.05,-65.54,-14.63,-3.5726829.00,-8.63,-2.25,3.79,0.27,-0.09,0.13,-65.54,-14.63,-3.5726881.00,-9.38,-0.17,2.44,0.26,0.14,0.25,-65.72,-14.10,-2.0426933.00,-8.41,-2.83,2.56,-0.11,0.56,-0.77,-65.72,-14.10,-2.0426985.00,-8.88,-3.22,3.09,0.36,0.07,-0.13,-66.42,-13.05,0.0027037.00,-9.21,-1.14,1.99,-0.22,-0.08,0.19,-66.42,-13.05,0.0027089.00,-9.01,-2.44,3.80,-0.25,0.11,0.09,-65.01,-14.10,-0.6827141.00,-8.78,-2.01,3.71,-0.13,-0.02,0.33,-65.01,-14.10,-0.6827193.00,-9.07,-1.92,2.61,0.06,-0.22,0.04,-65.01,-14.10,-0.6827245.00,-8.96,-2.90,2.75,-0.07,0.38,-0.36,-64.13,-14.99,-0.5127297.00,-8.57,-3.03,2.27,-0.15,0.43,-0.10,-64.13,-14.99,-0.5127349.00,-10.00,-0.00,2.74,-0.19,-0.63,-0.11,-65.72,-14.46,0.0027401.00,-8.56,-1.08,3.81,-0.37,-0.31,-0.11,-65.72,-14.46,0.0027453.00,-7.75,-4.77,4.69,-0.10,-0.22,-0.55,-65.72,-14.46,0.0027505.00,-8.67,-2.81,3.36,0.29,0.22,0.15,-64.84,-11.81,-2.8927557.00,-9.20,-1.36,2.54,0.22,0.09,0.25,-64.84,-11.81,-2.8927609.00,-9.82,-1.93,3.90,0.11,-0.07,0.24,-64.49,-12.87,-2.2127661.00,-8.99,-2.04,2.51,-0.01,0.12,0.01,-64.49,-12.87,-2.2127713.00,-8.27,-2.87,1.81,0.06,0.33,-0.36,-66.07,-11.99,-0.3427933.00,-8.94,-2.16,3.48,0.11,0.23,-0.08,-65.89,-12.87,-0.8527985.00,-9.22,-1.61,3.76,0.15,0.06,0.11,-66.24,-14.28,0.5128037.00,-8.75,-1.75,3.52,-0.02,-0.30,0.25,-66.24,-14.28,0.5128089.00,-9.40,-1.77,3.98,-0.07,-0.09,-0.07,-64.84,-14.63,-2.5528141.00,-9.43,-1.38,2.27,-0.14,0.16,-0.03,-64.84,-14.63,-2.5528193.00,-8.76,-2.61,3.38,-0.05,0.06,0.18,-64.84,-14.63,-2.5528246.00,-9.06,-0.98,3.12,-0.01,0.37,-0.16,-66.24,-16.04,0.5128298.00,-9.38,-0.79,3.26,-0.01,0.14,0.00,-66.24,-16.04,0.5128350.00,-9.11,-0.57,3.03,-0.26,-0.69,-0.17,-65.54,-14.99,-0.1728402.00,-7.37,-3.91,5.06,-0.47,-0.87,-0.21,-65.54,-14.99,-0.1728454.00,-11.81,-1.01,1.41,0.18,0.65,0.58,-65.54,-14.99,-0.1728506.00,-10.24,-0.67,2.47,-0.25,0.04,-0.00,-65.72,-14.81,-2.3828559.00,-7.92,-3.34,3.94,-0.08,0.09,-0.10,-65.72,-14.81,-2.3828611.00,-8.94,-0.94,3.06,0.32,0.16,0.14,-64.49,-14.28,-0.8528663.00,-9.41,-0.44,2.45,0.07,0.08,0.13,-64.49,-14.28,-0.8528715.00,-9.10,-2.21,3.11,0.10,0.31,-0.12,-64.49,-14.28,-0.8528767.00,-9.16,-1.38,3.37,0.34,0.05,-0.03,-64.49,-14.28,-0.8528819.00,-8.90,-1.90,1.76,0.15,-0.16,-0.17,-64.49,-14.28,-0.8528871.00,-8.10,-2.88,4.75,-0.12,-0.50,-0.36,-66.07,-15.51,-0.6829095.00,-9.55,-0.93,2.56,0.19,-0.05,0.08,-65.36,-14.10,-1.7029147.00,-8.87,-2.62,3.76,0.09,0.17,-0.02,-65.36,-14.10,-1.7029199.00,-8.92,-1.63,3.20,0.14,0.15,0.16,-65.36,-14.10,-1.7029251.00,-8.71,-1.64,3.11,-0.09,-0.09,0.03,-65.36,-14.46,-1.3629303.00,-8.62,-2.60,3.03,-0.04,-0.21,0.01,-65.36,-14.46,-1.3629356.00,-9.37,-2.00,3.37,-0.11,-0.01,-0.29,-64.49,-14.99,-0.1729408.00,-9.75,-0.38,4.91,0.10,0.06,-0.02,-64.49,-14.99,-0.1729460.00,-8.82,-2.27,2.99,0.09,0.27,-0.01,-64.49,-14.99,-0.1729512.00,-9.23,-0.97,3.26,0.02,-0.29,0.34,-65.01,-14.10,-0.3429564.00,-9.34,-1.85,3.64,-0.02,-0.31,0.11,-65.01,-14.10,-0.3429617.00,-9.46,-2.43,2.80,-0.17,0.23,-0.24,-65.36,-14.46,-3.7429669.00,-8.37,-3.27,0.44,0.02,0.57,-0.35,-65.36,-14.46,-3.7429721.00,-8.17,-2.84,2.65,0.36,0.18,0.27,-65.36,-14.46,-3.7429773.00,-9.15,-2.12,2.98,0.02,-0.28,0.06,-63.96,-15.51,0.3429825.00,-9.19,-2.31,4.02,-0.06,-0.06,-0.17,-63.96,-15.51,0.3429878.00,-9.26,-0.99,2.49,-0.17,0.50,-0.01,-65.54,-15.34,0.1729930.00,-10.44,-0.51,2.42,0.08,-0.28,0.50,-65.54,-15.34,0.1729982.00,-9.08,-1.17,2.90,-0.19,-0.58,-0.16,-65.01,-14.10,-1.7030034.00,-8.64,-1.87,3.68,-0.34,-0.23,-0.21,-65.01,-14.10,-1.7030262.00,-8.68,-2.73,2.47,-0.04,-0.17,0.22,-65.19,-16.04,0.8530315.00,-9.40,-2.53,4.83,-0.08,-0.45,0.30,-65.19,-16.04,0.8530367.00,-9.28,-1.70,3.29,-0.14,-0.04,0.07,-65.54,-16.75,-1.8730419.00,-8.87,-1.42,3.04,-0.10,0.56,-0.27,-65.54,-16.75,-1.8730472.00,-8.86,-3.57,1.10,-0.01,-0.03,-0.04,-63.08,-13.93,0.1730524.00,-7.69,-2.58,4.02,-0.26,-0.65,0.14,-63.08,-13.93,0.1730576.00,-10.51,-1.71,2.63,-0.03,0.22,0.52,-63.08,-13.93,0.1730629.00,-10.56,2.84,5.52,-0.50,0.12,-0.15,-64.31,-17.98,-1.0230681.00,-9.80,-2.71,2.00,-0.30,0.20,-0.41,-64.31,-17.98,-1.0230733.00,-8.07,-2.88,4.62,-0.11,0.12,-0.09,-64.49,-16.04,-1.5330786.00,-9.82,-1.59,1.87,0.04,0.44,0.30,-64.49,-16.04,-1.5330838.00,-9.00,-1.62,2.44,0.18,0.06,0.24,-64.49,-16.04,-1.5330890.00,-8.93,-2.09,2.55,-0.03,-0.27,0.20,-65.54,-16.04,2.2130942.00,-9.62,-1.22,3.31,-0.16,-0.15,0.10,-65.54,-16.04,2.2130995.00,-9.10,-2.24,2.38,-0.18,0.36,-0.32,-64.84,-16.04,0.1731047.00,-8.84,-2.93,3.88,-0.06,0.20,0.18,-64.84,-16.04,0.1731099.00,-9.17,-1.98,2.88,-0.13,-0.11,0.19,-65.01,-16.92,0.0031152.00,-9.46,-1.61,3.14,-0.13,0.11,-0.10,-65.01,-16.92,0.0031204.00,-9.39,-1.09,2.13,-0.14,0.22,0.01,-65.01,-16.92,0.0031377.00,-9.16,-2.06,2.34,-0.22,0.03,-0.28,-64.49,-17.45,0.5131430.00,-9.07,-2.15,2.12,-0.11,0.35,-0.16,-64.49,-17.45,0.5131482.00,-9.03,-2.21,2.53,0.05,0.12,0.18,-64.31,-15.87,0.3431534.00,-8.99,-2.38,2.15,-0.11,-0.20,0.27,-64.31,-15.87,0.3431587.00,-9.28,-1.10,2.55,-0.18,0.03,0.02,-64.31,-15.87,0.3431639.00,-9.20,-1.82,2.46,-0.25,0.16,-0.23,-64.31,-17.28,0.3431691.00,-8.86,-2.78,2.79,-0.03,-0.02,0.25,-64.31,-17.28,0.3431743.00,-9.00,-2.34,2.12,-0.11,-0.17,0.28,-64.84,-17.81,0.8531796.00,-9.87,-0.46,2.91,-0.21,0.06,-0.11,-64.84,-17.81,0.8531848.00,-9.54,-1.44,2.29,-0.28,0.19,-0.22,-64.84,-17.81,0.8531900.00,-8.43,-2.39,2.03,-0.10,-0.09,0.29,-65.89,-17.45,0.8531953.00,-9.55,-1.00,2.72,-0.07,-0.07,0.11,-65.89,-17.45,0.8532005.00,-8.74,-3.18,0.60,-0.29,0.33,-0.32,-63.26,-19.04,0.0032057.00,-9.72,-2.49,0.58,0.07,-0.08,0.06,-63.26,-19.04,0.0032110.00,-9.49,-0.88,2.44,0.61,-2.07,-0.61,-66.42,-18.69,0.0032162.00,-9.42,-3.01,6.25,0.13,-1.74,-0.41,-66.42,-18.69,-0.6832214.00,-7.53,-3.28,6.65,0.43,-1.00,-0.29,-66.42,-18.69,-0.6832267.00,-5.08,-2.43,6.02,0.39,-0.11,-0.97,-62.20,-15.16,-10.1932319.00,-5.54,-3.81,3.76,0.63,0.84,-1.27,-62.20,-15.16,-10.1932533.00,-9.02,-3.37,4.54,0.20,0.27,0.22,-63.61,-11.64,-3.4032585.00,-10.02,-0.63,2.92,0.27,0.59,0.41,-63.61,-11.64,-3.4032638.00,-8.19,-1.02,3.37,-0.19,-0.21,0.06,-65.36,-14.46,-1.7032690.00,-9.09,-2.72,4.29,-0.10,-0.14,-0.13,-65.36,-14.46,-1.7032742.00,-8.62,-2.30,4.39,0.10,0.27,0.10,-63.78,-13.57,-2.2132795.00,-9.76,-1.23,1.54,0.28,0.53,0.31,-63.78,-13.57,-2.2132847.00,-9.31,-0.71,2.80,-0.02,-0.03,0.09,-63.78,-13.57,-2.2132899.00,-8.87,-1.59,3.38,-0.07,-0.20,0.33,-64.66,-13.75,1.0232952.00,-9.66,-0.45,3.95,-0.04,-0.01,0.00,-64.66,-13.75,1.0233004.00,-8.62,-2.33,2.95,0.07,0.39,-0.50,-66.07,-13.75,-1.0233057.00,-8.68,-2.39,3.02,0.03,0.02,0.13,-66.07,-13.75,-1.0233109.00,-9.63,-0.71,3.75,-0.05,-0.23,0.47,-66.07,-13.75,-1.0233161.00,-9.33,-1.01,4.02,0.01,0.20,-0.13,-64.31,-16.22,-1.0233214.00,-8.85,-1.90,3.59,0.05,0.12,-0.21,-64.31,-16.22,-1.0233266.00,-9.22,-1.70,3.36,-0.06,-0.12,0.28,-65.19,-13.57,0.5133319.00,-9.16,-2.10,3.10,-0.08,-0.08,0.15,-65.19,-13.57,0.5133371.00,-9.11,-0.86,3.72,0.02,0.27,-0.17,-63.43,-15.69,0.1733423.00,-8.91,-2.21,3.60,-0.03,0.07,-0.08,-63.43,-15.69,0.1733476.00,-9.26,-1.90,2.98,-0.12,-0.11,0.19,-65.01,-15.51,-0.6833712.00,-9.64,-0.65,3.10,-0.09,-0.37,0.12,-64.31,-15.87,1.3633765.00,-9.52,-0.88,3.50,-0.14,-0.03,-0.24,-64.49,-15.69,0.5133817.00,-8.89,-1.96,2.79,0.00,0.38,-0.20,-64.49,-15.69,0.5133870.00,-8.69,-2.28,2.37,-0.07,0.10,0.13,-65.36,-14.81,0.6833922.00,-9.76,-1.29,3.49,-0.12,-0.15,0.29,-65.36,-14.81,0.6833975.00,-8.81,-2.63,2.35,-0.04,0.33,-0.42,-65.36,-14.81,0.6834027.00,-8.50,-2.04,2.39,0.00,0.13,0.10,-65.89,-14.63,0.5134080.00,-9.10,-1.63,2.41,-0.23,-0.15,0.25,-65.89,-14.63,0.5134132.00,-9.78,-2.40,2.40,-0.18,0.30,-0.39,-64.84,-16.04,1.5334185.00,-9.40,-0.58,3.30,-0.19,0.16,-0.13,-64.84,-16.04,1.5334237.00,-9.31,-1.98,2.50,-0.09,-0.10,0.34,-66.59,-15.69,0.1734290.00,-9.68,-0.91,2.93,0.04,-0.07,0.27,-66.59,-15.69,0.1734342.00,-9.62,-0.59,2.98,0.10,0.12,-0.18,-66.59,-15.69,0.1734394.00,-8.59,-2.44,1.75,-0.03,0.02,-0.08,-64.66,-15.16,1.7034447.00,-9.15,-1.42,1.06,-0.20,-0.03,0.24,-64.66,-15.16,1.7034500.00,-9.74,-1.85,2.75,-0.04,-0.15,0.07,-65.36,-16.57,0.0034552.00,-8.74,-0.81,3.12,-0.12,-0.73,-0.23,-65.36,-16.57,0.0034604.00,-6.92,-3.87,4.91,-0.44,-0.38,-0.19,-65.36,-16.57,0.0034657.00,-9.91,0.69,1.19,-0.03,0.40,0.34,-66.24,-14.28,-2.2134898.00,-8.10,-3.54,4.02,0.09,-0.15,0.40,-66.07,-13.40,-0.3434951.00,-9.85,-1.22,2.66,0.40,0.11,0.44,-66.07,-13.40,-0.3435004.00,-8.52,-1.40,3.63,0.22,0.65,-0.61,-64.66,-15.16,-0.6835056.00,-8.40,-3.49,1.88,0.19,0.27,-0.33,-64.66,-15.16,-0.6835109.00,-9.43,-2.06,2.41,-0.20,-0.34,0.12,-64.66,-15.16,-0.6835161.00,-9.02,-2.71,2.14,-0.17,0.06,0.06,-65.72,-13.40,-0.6835214.00,-8.60,-2.40,3.05,0.10,0.00,0.15,-65.72,-13.40,-0.6835266.00,-8.76,-2.83,2.21,0.11,-0.06,-0.00,-66.24,-15.34,-0.1735319.00,-9.45,-1.87,3.55,-0.07,0.12,-0.16,-66.24,-15.34,-0.1735371.00,-9.39,-1.08,2.67,-0.08,0.27,-0.02,-65.89,-13.57,0.8535424.00,-10.11,-1.29,1.41,0.06,-0.23,0.10,-65.89,-13.57,0.8535476.00,-7.52,-3.63,4.11,-0.24,-0.91,-0.49,-65.89,-13.57,0.8535529.00,-7.71,-3.72,5.61,-0.28,-0.35,0.06,-65.01,-14.81,-1.7035582.00,-9.94,1.28,1.54,0.01,0.38,0.29,-65.01,-14.81,-1.7035634.00,-10.28,-1.80,1.34,-0.20,-0.17,-0.37,-66.24,-14.63,-2.2135687.00,-8.44,-1.83,2.97,-0.13,0.23,0.21,-66.24,-14.63,-2.2135739.00,-7.91,-3.67,3.97,-0.14,-0.16,-0.26,-65.89,-13.57,-1.8735792.00,-8.00,-3.75,4.39,0.14,-0.28,-0.05,-65.89,-13.57,-1.8735844.00,-8.73,-2.24,3.41,0.41,0.22,0.09,-65.89,-13.57,-1.8736065.00,-9.34,-0.96,4.25,0.05,0.12,-0.10,-66.24,-14.99,-1.8736118.00,-9.47,-0.11,4.39,0.13,-0.07,0.11,-65.19,-14.63,-1.1936170.00,-8.40,-3.45,1.63,-0.22,-0.10,0.09,-65.19,-14.63,-1.1936223.00,-9.28,-2.30,3.52,-0.03,0.09,0.01,-65.19,-14.63,-1.1936275.00,-8.83,-2.13,3.12,0.16,0.25,-0.08,-65.54,-13.57,-0.8536328.00,-8.45,-3.10,2.00,0.26,0.13,0.02,-65.54,-13.57,-0.8536381.00,-9.06,-2.17,2.99,-0.15,-0.29,0.10,-65.36,-15.16,-1.0236433.00,-9.72,-1.90,3.77,-0.05,0.07,-0.10,-65.36,-15.16,-1.0236486.00,-9.21,-1.38,1.60,-0.19,0.38,-0.10,-65.36,-15.16,-1.0236539.00,-10.78,1.35,1.21,-0.15,-0.35,0.20,-65.54,-14.63,0.5136591.00,-7.96,-3.42,3.45,-0.29,-0.54,-0.60,-65.54,-14.63,0.5136644.00,-8.25,-3.86,4.01,-0.15,-0.21,-0.20,-66.24,-12.52,-1.5336696.00,-8.41,-2.55,4.43,0.11,0.26,0.32,-66.24,-12.52,-1.5336749.00,-11.68,-0.42,1.71,0.20,0.39,0.54,-66.95,-14.63,-0.5136802.00,-9.23,-2.26,3.62,0.14,-0.10,-0.10,-66.95,-14.63,-0.5136855.00,-9.03,-1.39,2.56,-0.02,0.32,-0.21,-66.95,-14.63,-0.5136907.00,-8.48,-3.06,2.87,-0.03,0.23,-0.29,-66.95,-12.16,0.1736960.00,-9.35,-1.10,3.10,0.07,-0.15,0.17,-66.95,-12.16,0.1737013.00,-9.12,-2.45,2.81,-0.12,0.00,-0.00,-65.72,-14.10,-0.6837243.00,-9.60,0.05,3.71,-0.13,-0.06,-0.04,-66.77,-13.75,-1.0237296.00,-8.85,-1.93,2.64,0.06,0.22,-0.05,-66.77,-13.75,-1.0237349.00,-8.34,-3.20,2.26,-0.11,-0.02,0.16,-66.77,-13.75,-1.0237401.00,-9.30,-1.76,3.59,-0.11,-0.07,0.12,-65.89,-15.34,-1.1937454.00,-9.15,-2.05,1.92,-0.02,0.25,-0.16,-65.89,-15.34,-1.1937507.00,-9.10,-2.73,2.46,-0.01,0.12,0.00,-66.59,-13.93,-0.5137559.00,-9.33,-1.80,3.61,-0.13,-0.22,0.38,-66.59,-13.93,-0.5137612.00,-9.46,-0.87,3.32,-0.11,0.03,0.09,-66.59,-13.93,-0.5137665.00,-8.71,-3.09,1.40,-0.15,0.41,-0.40,-66.77,-15.51,0.3437717.00,-10.09,-0.89,3.39,-0.00,-0.14,0.48,-66.77,-15.51,0.3437770.00,-9.71,-0.77,3.13,-0.02,-0.22,0.46,-66.42,-14.81,0.6837823.00,-9.16,-1.24,2.57,-0.01,0.23,-0.12,-66.42,-14.81,0.6837876.00,-8.82,-3.61,1.38,0.12,0.19,-0.14,-66.42,-14.10,1.7037928.00,-9.77,-1.21,2.94,-0.09,-0.21,0.19,-66.42,-14.10,1.7037981.00,-9.72,0.40,3.58,-0.17,-0.39,0.60,-66.42,-14.10,1.7038034.00,-9.86,-1.52,1.23,-0.12,-0.36,-0.37,-66.42,-15.87,0.0038086.00,-7.23,-3.90,4.80,-0.12,-0.73,-0.76,-66.42,-15.87,0.0038139.00,-8.36,-3.98,4.65,-0.01,0.51,0.62,-64.13,-12.87,-2.5538192.00,-9.98,2.23,0.51,-0.06,0.50,0.49,-64.13,-12.87,-2.5538410.00,-9.03,-2.61,2.47,0.47,0.81,0.53,-64.49,-10.05,-3.5738463.00,-9.37,-1.67,2.46,0.22,0.30,0.34,-64.49,-10.05,-3.5738516.00,-8.32,-3.37,4.14,0.16,-0.49,0.02,-66.24,-12.87,-2.2138569.00,-7.61,-3.28,4.83,0.24,-0.64,0.24,-66.24,-12.87,-2.2138622.00,-8.72,-1.68,3.79,0.57,-0.11,0.23,-66.42,-14.81,-3.7438675.00,-8.93,-1.36,3.69,0.30,0.31,0.22,-66.42,-14.81,-3.7438727.00,-10.10,-0.82,1.90,-0.59,0.28,-0.20,-66.42,-14.81,-3.7438780.00,-8.35,-3.33,3.68,-0.38,-0.02,-0.30,-66.95,-14.28,-2.5538833.00,-8.04,-3.13,3.96,0.17,0.06,-0.13,-66.95,-14.28,-2.5538886.00,-8.95,-1.69,3.16,0.38,0.05,-0.10,-66.07,-12.69,-2.3838939.00,-9.11,-2.40,2.97,-0.21,-0.02,-0.06,-66.07,-12.69,-2.3838992.00,-8.17,-2.92,3.75,-0.02,-0.07,0.18,-66.07,-12.69,-2.3839045.00,-11.91,-1.05,3.10,0.04,0.16,0.61,-66.42,-13.40,-1.7039098.00,-9.23,-0.59,3.89,0.01,0.48,-0.40,-66.42,-13.40,-1.7039150.00,-8.14,-2.68,1.87,0.10,0.51,-0.54,-66.42,-12.69,-0.3439204.00,-8.97,-2.33,3.43,0.00,-0.28,0.21,-66.42,-12.69,-0.3439256.00,-9.31,-2.31,2.11,-0.32,-0.58,0.42,-66.42,-12.69,-0.3439309.00,-9.48,-1.39,4.23,0.07,-0.05,0.15,-65.19,-14.28,-1.8739362.00,-9.22,-2.48,3.61,0.41,0.16,-0.32,-65.19,-14.28,-1.8739415.00,-9.20,-1.47,2.73,0.05,0.02,0.04,-66.42,-14.46,-1.3639649.00,-8.72,-1.91,3.43,-0.11,-0.26,-0.03,-67.47,-15.87,-1.3639702.00,-8.55,-4.05,3.22,0.16,0.32,-0.60,-67.47,-15.87,-1.3639755.00,-8.89,-2.27,3.71,-0.16,0.16,0.08,-67.47,-15.87,-1.3639808.00,-8.88,-2.78,2.72,-0.12,0.09,-0.03,-66.42,-15.87,-2.3839861.00,-9.41,-1.21,3.82,0.10,0.17,0.02,-66.42,-15.87,-2.3839914.00,-8.82,-2.05,2.85,-0.03,0.20,-0.04,-66.42,-15.87,-0.3439967.00,-9.41,-1.82,2.92,-0.09,-0.13,0.32,-66.42,-15.87,-0.3440020.00,-8.98,-1.97,3.49,0.05,-0.25,0.32,-66.77,-16.57,0.3440073.00,-9.30,-1.73,3.00,0.15,0.01,0.19,-66.77,-16.57,0.3440126.00,-9.15,-0.44,2.30,-0.01,0.23,-0.13,-67.65,-19.22,-0.8540179.00,-8.51,-3.14,2.94,0.14,0.16,-0.22,-67.65,-19.22,-0.8540232.00,-9.37,-1.09,1.63,-0.17,0.00,0.26,-67.65,-19.22,-0.8540284.00,-11.31,1.82,2.71,-0.35,-0.42,0.46,-66.07,-16.92,0.0040337.00,-9.62,-1.00,1.33,-0.19,-0.69,-0.83,-66.07,-16.92,0.0040390.00,-6.73,-4.44,6.41,-0.09,-0.90,-0.73,-65.89,-14.99,-5.2740443.00,-7.45,-2.79,5.11,0.24,0.19,-0.62,-65.89,-14.99,-5.2740496.00,-6.84,-5.70,5.74,0.33,0.44,-1.15,-65.89,-14.99,-5.2740549.00,-8.68,-2.58,2.30,0.87,0.80,-0.44,-65.36,-7.40,-4.4240602.00,-9.59,-2.39,2.06,0.62,0.32,-0.05,-65.36,-7.40,-4.4240832.00,-8.62,-2.44,3.72,0.06,0.11,0.17,-65.36,-11.64,-1.7040885.00,-8.65,-1.93,3.54,0.05,0.11,0.28,-66.95,-11.81,-1.1940938.00,-8.47,-3.01,3.91,0.08,0.24,0.29,-66.95,-11.81,-1.1940991.00,-10.27,1.42,4.23,0.08,0.15,0.01,-66.95,-11.81,-1.1941044.00,-8.80,-1.22,3.74,0.14,0.02,0.18,-65.72,-12.69,0.0041097.00,-8.08,-2.20,3.52,-0.09,-0.22,0.33,-65.72,-12.69,0.0041150.00,-9.74,-2.53,3.81,-0.16,-0.27,0.06,-65.01,-11.99,-0.6841203.00,-8.59,-3.32,2.44,-0.08,0.35,-0.44,-65.01,-11.99,-0.6841256.00,-8.93,-1.04,2.76,-0.02,0.11,0.34,-65.01,-11.99,-0.6841309.00,-9.13,-1.88,3.13,0.04,-0.07,0.16,-64.49,-13.57,-1.1941362.00,-9.15,-1.22,3.13,0.16,0.25,-0.08,-64.49,-13.57,-1.1941415.00,-8.90,-2.11,3.25,0.04,0.10,0.05,-65.72,-12.69,0.3441468.00,-9.23,-2.08,2.70,-0.20,-0.15,0.22,-65.72,-12.69,0.3441521.00,-8.76,-2.16,2.44,0.07,0.37,-0.13,-65.36,-14.10,-0.3441574.00,-9.39,-1.41,3.10,0.09,0.21,-0.09,-65.36,-14.10,-0.3441627.00,-8.97,-1.04,2.76,-0.11,-0.71,-0.15,-65.54,-14.28,-0.1741681.00,-7.56,-3.57,5.70,-0.28,-0.68,0.13,-65.54,-14.28,-0.1741734.00,-12.17,-0.74,1.75,0.08,0.62,0.45,-65.54,-14.28,-0.1741787.00,-9.22,-1.34,1.85,-0.30,0.24,-0.41,-65.72,-14.46,0.3442013.00,-8.52,-2.86,4.03,0.22,0.29,0.16,-64.84,-11.81,-0.5142066.00,-9.51,-1.17,1.19,0.27,0.39,0.19,-64.84,-11.81,-0.5142120.00,-8.63,-2.41,3.12,0.03,-0.08,0.10,-65.01,-11.28,-42.8042173.00,-9.01,-2.26,3.85,-0.04,-0.18,0.13,-65.01,-11.28,0.6842226.00,-9.30,-1.04,3.21,-0.15,0.11,-0.24,-65.01,-11.28,0.6842279.00,-9.14,-1.84,3.43,0.03,0.27,-0.17,-67.30,-12.87,-0.8542332.00,-8.74,-1.87,3.04,0.18,-0.03,0.32,-67.30,-12.87,-0.8542385.00,-8.90,-2.18,3.58,-0.09,-0.37,0.32,-66.77,-13.05,-1.0242438.00,-9.53,-1.37,2.70,-0.09,-0.05,0.10,-66.77,-13.05,-1.0242491.00,-8.86,-2.53,1.30,0.01,0.50,-0.40,-66.77,-13.05,-1.0242545.00,-9.26,-1.73,3.46,0.11,0.11,0.12,-65.89,-13.57,0.8542598.00,-8.57,-1.83,3.32,0.14,-0.21,0.45,-65.89,-13.57,0.8542651.00,-9.09,-2.22,3.05,-0.12,-0.24,0.17,-65.89,-14.28,-0.1742704.00,-10.13,1.09,5.13,-0.15,0.06,-0.05,-65.89,-14.28,-0.1742757.00,-8.99,-2.43,2.42,-0.07,0.58,-0.40,-65.89,-14.28,-0.1742810.00,-8.79,-2.06,2.42,0.14,0.08,0.20,-66.59,-13.93,1.8742863.00,-9.48,-1.83,3.44,0.01,-0.40,0.22,-66.59,-13.93,1.8742916.00,-9.39,-2.21,2.68,-0.04,0.06,-0.06,-65.36,-15.51,0.0042970.00,-9.00,-2.18,2.33,-0.27,0.41,0.00,-65.36,-15.51,0.0043191.00,-8.75,-2.41,3.56,0.35,0.22,0.06,-64.66,-13.75,-0.3443245.00,-9.50,-1.36,2.26,0.03,0.03,-0.01,-64.66,-13.75,-0.3443298.00,-8.21,-3.03,3.71,-0.05,-0.08,0.03,-65.19,-13.22,-0.1743351.00,-9.45,-1.44,2.18,0.09,0.17,0.21,-65.19,-13.22,-0.1743404.00,-8.99,-1.33,2.93,0.06,0.34,-0.29,-66.95,-13.57,0.5143457.00,-9.13,-2.59,3.81,0.01,0.03,-0.05,-66.95,-13.57,0.5143510.00,-9.22,-1.62,3.16,-0.30,-0.12,0.30,-66.24,-12.87,1.5343564.00,-9.46,-1.55,3.95,0.02,0.01,0.06,-66.24,-12.87,1.5343617.00,-9.08,-1.89,3.16,0.13,0.27,-0.11,-66.24,-12.87,1.5343670.00,-9.00,-1.95,2.50,0.21,0.14,0.10,-65.72,-14.46,0.6843723.00,-9.32,-1.58,2.94,0.11,-0.05,0.17,-65.72,-14.46,0.6843776.00,-9.13,-1.45,3.22,-0.00,-0.25,0.17,-66.77,-15.51,1.7043829.00,-9.21,-1.18,2.94,-0.09,-0.09,-0.10,-66.77,-15.51,1.7043882.00,-8.70,-3.09,1.56,-0.10,0.49,-0.51,-66.24,-13.93,1.1943935.00,-9.05,-1.67,2.98,-0.02,0.19,0.18,-66.24,-13.93,1.1943989.00,-8.71,-3.01,1.24,-0.09,-0.04,-0.02,-66.24,-13.93,1.1944042.00,-9.44,-1.12,2.57,-0.25,0.27,-0.15,-66.77,-14.46,2.3844095.00,-9.15,-1.38,1.31,-0.28,0.34,0.09,-66.77,-14.46,2.3844148.00,-11.08,0.85,1.62,0.07,-0.88,-0.05,-65.89,-13.22,1.5344378.00,-8.72,-3.64,3.12,-0.03,0.31,-0.35,-66.59,-8.99,-4.9344432.00,-8.07,-3.20,2.81,0.10,-0.27,0.36,-65.72,-3.88,-1.0244485.00,-9.27,-2.46,3.54,0.12,-0.42,0.73,-65.72,-3.88,-1.0244539.00,-9.52,-3.19,3.92,0.15,-0.41,0.48,-65.54,-7.23,-1.5344592.00,-8.20,-2.96,3.13,0.48,0.05,0.29,-65.54,-7.23,-1.5344645.00,-8.04,-1.26,3.62,0.05,-0.08,-0.06,-66.07,-8.46,-1.7044698.00,-8.71,-3.87,3.82,0.04,0.03,-0.17,-66.07,-8.46,-1.7044752.00,-8.64,-1.38,3.18,0.13,-0.08,0.06,-66.07,-8.46,-1.7044805.00,-8.91,-1.86,3.41,0.10,-0.02,0.14,-65.36,-9.52,-3.4044858.00,-8.88,-2.38,3.60,0.01,-0.11,-0.04,-65.36,-9.52,-3.4044912.00,-8.21,-2.72,3.60,0.14,-0.01,0.12,-64.66,-10.23,-4.0844965.00,-9.56,-2.27,3.27,0.33,0.13,0.33,-64.66,-10.23,-4.0845018.00,-8.78,-1.77,2.90,0.09,0.05,0.03,-65.54,-11.81,-3.5745072.00,-8.26,-3.42,2.76,-0.15,0.59,-0.71,-65.54,-11.81,-3.5745125.00,-9.01,-3.09,3.12,-0.13,0.13,0.06,-65.54,-11.81,-3.5745178.00,-8.42,-2.34,1.77,-0.26,0.32,0.15,-64.84,-9.34,-1.8745232.00,-9.82,-2.11,3.48,-0.04,-0.33,-0.01,-64.84,-9.34,-1.8745285.00,-7.77,-3.36,4.04,-0.17,-0.33,0.15,-65.36,-11.28,-1.7045338.00,-8.11,-3.35,4.43,0.07,-0.14,0.59,-65.36,-11.28,-1.7045392.00,-8.90,-1.19,2.64,-0.10,0.23,0.09,-64.49,-11.11,-1.5345628.00,-8.02,-3.04,4.12,0.43,-0.08,0.05,-65.01,-10.23,-1.3645681.00,-9.17,-1.55,2.90,0.25,0.24,0.17,-63.43,-9.70,-2.8945734.00,-9.04,-2.98,2.76,0.15,0.26,0.00,-63.43,-9.70,-2.8945788.00,-8.82,-2.43,2.78,-0.01,0.01,0.04,-64.13,-12.16,-1.1945841.00,-8.43,-2.56,3.21,-0.05,-0.17,0.25,-64.13,-12.16,-1.1945894.00,-8.93,-2.54,3.93,0.08,-0.19,0.10,-64.13,-12.16,-3.2345948.00,-9.14,-1.95,3.79,-0.09,0.27,-0.36,-64.13,-12.16,-3.2346001.00,-8.86,-2.04,2.97,-0.03,0.32,-0.18,-64.13,-12.16,-3.2346055.00,-8.74,-2.27,3.49,-0.09,-0.13,0.32,-65.36,-11.28,-1.0246108.00,-9.12,-1.81,3.19,-0.01,0.05,0.01,-65.36,-11.28,-1.0246161.00,-8.89,-2.43,2.71,0.01,0.21,-0.08,-65.19,-11.81,-0.5146215.00,-8.33,-2.55,2.96,0.08,-0.03,0.21,-65.19,-11.81,-0.5146268.00,-9.40,-1.98,4.06,0.02,-0.28,0.16,-64.66,-11.28,-2.0446322.00,-9.09,-0.68,2.93,-0.09,-0.07,-0.03,-64.66,-11.28,-2.0446375.00,-9.20,-1.52,4.16,0.09,0.26,-0.11,-64.66,-11.28,-2.0446429.00,-8.47,-2.82,3.39,0.01,-0.04,0.23,-65.72,-11.64,-0.6846482.00,-8.81,-3.42,3.27,-0.10,-0.15,0.17,-65.72,-11.64,-0.6846536.00,-9.70,-0.72,5.64,-0.04,-0.04,-0.01,-65.89,-12.87,-0.5146589.00,-8.81,-2.45,2.72,0.03,0.30,-0.15,-65.89,-12.87,-0.5146813.00,-8.83,-2.65,2.86,0.08,0.03,0.07,-66.24,-12.87,-0.1746866.00,-8.80,-2.76,2.73,-0.18,-0.16,0.17,-66.24,-12.87,-0.1746920.00,-9.16,-1.26,3.25,-0.04,0.02,0.04,-66.59,-12.52,0.8546973.00,-9.04,-1.74,2.10,-0.04,0.26,0.06,-66.59,-12.52,0.8547027.00,-10.22,0.34,1.48,-0.21,-0.44,0.12,-65.54,-12.87,1.1947080.00,-8.82,-1.29,3.05,-0.40,-0.31,-0.24,-65.54,-12.87,1.1947134.00,-8.21,-3.54,4.18,-0.34,-0.32,-0.47,-65.54,-12.87,1.1947187.00,-7.61,-3.65,4.31,0.40,-0.03,0.06,-65.54,-10.40,-1.5347240.00,-9.10,-1.63,3.08,0.28,0.08,0.61,-65.54,-10.40,-1.5347294.00,-9.42,-2.34,1.90,-0.07,0.19,-0.26,-64.66,-12.34,-1.7047347.00,-8.62,-2.74,2.51,0.10,0.27,-0.19,-64.66,-12.34,-1.7047401.00,-8.78,-3.42,1.67,-0.22,0.10,-0.02,-64.84,-10.40,-1.1947454.00,-8.85,-3.40,3.36,-0.24,0.02,0.04,-64.84,-10.40,-1.1947508.00,-8.71,-3.29,3.36,0.25,0.00,0.05,-64.84,-10.40,-1.1947561.00,-9.16,-2.33,3.09,0.12,-0.11,0.15,-64.49,-13.93,-1.1947615.00,-9.27,-1.66,5.07,-0.12,0.12,-0.27,-64.49,-13.93,-1.1947668.00,-8.66,-2.66,2.76,0.02,0.19,0.11,-65.36,-11.28,0.3447722.00,-8.84,-2.77,3.69,-0.10,-0.14,0.29,-65.36,-11.28,0.3447775.00,-9.51,-1.64,3.40,-0.03,0.06,0.03,-66.07,-12.34,0.3447996.00,-9.07,-2.32,2.67,-0.05,0.19,-0.17,-66.07,-12.34,0.3448050.00,-8.85,-2.68,3.03,-0.13,-0.05,0.13,-65.19,-14.99,0.1748104.00,-8.94,-2.58,2.31,-0.17,-0.13,0.23,-65.19,-14.99,0.1748157.00,-9.22,-1.68,2.26,-0.07,0.09,-0.03,-66.77,-14.46,0.6848211.00,-9.11,-1.95,2.78,-0.14,0.15,-0.05,-66.77,-14.46,0.6848264.00,-9.35,-1.26,2.45,0.10,0.08,0.17,-66.77,-14.46,0.6848318.00,-9.22,-1.47,2.48,0.14,-0.21,0.24,-66.95,-14.28,1.5348371.00,-9.46,-0.39,4.01,-0.13,-0.16,-0.02,-66.95,-14.28,1.5348425.00,-9.58,-0.56,3.61,-0.12,0.14,-0.16,-65.36,-14.10,1.0248479.00,-8.80,-2.34,2.18,-0.07,0.11,0.13,-65.36,-14.10,1.0248532.00,-9.10,-1.93,2.27,-0.18,-0.06,0.14,-66.77,-15.87,1.0248585.00,-9.50,-1.36,3.45,-0.17,0.13,-0.16,-66.77,-15.87,1.0248639.00,-9.02,-2.08,2.44,-0.12,0.08,0.10,-66.77,-15.87,1.0248693.00,-9.11,-2.58,2.53,-0.11,-0.10,0.20,-66.77,-14.46,1.3648746.00,-9.14,-2.12,2.42,-0.07,-0.03,0.09,-66.77,-14.46,1.3648800.00,-9.77,-0.70,3.90,-0.14,0.09,-0.02,-67.47,-14.46,1.0248853.00,-8.97,-3.19,1.85,0.00,0.12,-0.03,-67.47,-14.46,1.0248907.00,-9.64,-0.67,2.38,-0.06,-0.35,0.40,-65.19,-16.04,1.5348960.00,-9.13,-2.61,1.88,-0.12,-0.15,0.11,-65.19,-16.04,1.5349193.00,-8.41,-2.93,3.24,0.28,-0.60,-0.35,-66.59,-15.69,2.2149247.00,-10.88,-1.46,0.83,0.01,0.36,0.34,-66.59,-15.69,2.2149301.00,-9.33,-0.89,1.37,-0.27,0.17,0.12,-65.01,-15.87,0.3449354.00,-9.76,-1.42,2.47,-0.07,-0.49,-0.18,-65.01,-15.87,0.3449408.00,-7.53,-3.73,4.43,-0.16,-0.88,-0.64,-65.72,-13.75,-0.3449463.00,-7.33,-4.66,5.72,-0.20,0.05,0.16,-65.72,-13.75,-0.3449520.00,-10.02,1.21,1.76,-0.10,0.22,0.09,-65.72,-13.75,-0.3449572.00,-9.86,-1.54,2.88,0.13,-0.79,-0.57,-66.42,-13.75,0.0049623.00,-8.22,-3.72,3.64,0.57,-0.76,-1.16,-66.42,-13.75,0.0049675.00,-9.34,-1.02,2.28,0.68,0.57,0.83,-65.54,-10.75,-2.8949726.00,-8.15,-3.40,4.17,0.12,0.09,0.37,-65.54,-10.75,-2.8949777.00,-7.60,-4.64,5.31,0.41,-0.29,-0.26,-64.84,-12.16,-3.2349829.00,-8.99,-1.84,3.66,0.16,0.02,0.21,-64.84,-12.16,-3.2349880.00,-9.72,-1.02,2.97,0.00,0.02,0.20,-64.84,-12.16,-3.2349932.00,-8.94,-2.46,3.50,-0.19,0.12,0.12,-66.77,-12.69,-2.0449983.00,-8.76,-3.13,3.44,-0.05,-0.02,0.08,-66.77,-12.69,-2.0450034.00,-9.06,-1.71,2.55,0.17,0.03,-0.02,-65.89,-14.99,-1.8750086.00,-9.83,-0.68,3.75,-0.08,0.05,-0.06,-65.89,-14.99,-1.8750262.00,-8.88,-2.41,3.66,-0.35,-0.13,0.32,-65.72,-13.05,-1.7050313.00,-9.39,-1.81,3.83,-0.04,0.03,0.08,-65.72,-13.40,-1.0250364.00,-8.77,-2.29,3.11,0.05,0.31,-0.26,-65.72,-13.40,-1.0250416.00,-8.83,-2.41,2.81,-0.07,-0.03,0.13,-65.19,-13.57,-1.8750467.00,-9.14,-2.59,3.40,-0.15,-0.19,0.31,-65.19,-13.57,-1.8750519.00,-9.66,-0.66,4.14,0.06,0.16,-0.07,-65.19,-13.57,-1.8750571.00,-8.64,-2.55,2.80,0.13,0.16,0.05,-65.54,-13.93,-1.8750622.00,-9.13,-2.15,2.55,-0.10,-0.10,0.26,-65.54,-13.93,-1.8750674.00,-9.18,-2.01,2.93,-0.04,-0.01,0.12,-65.72,-15.51,-1.0250725.00,-9.32,-1.80,3.46,0.03,0.25,-0.13,-65.72,-15.51,-1.0250777.00,-9.18,-2.26,2.83,-0.00,0.10,-0.01,-65.72,-15.51,-1.0250828.00,-10.64,-0.92,1.96,0.10,-0.36,0.36,-66.07,-14.10,0.6850880.00,-7.79,-3.54,4.93,0.02,-0.64,-0.47,-66.07,-14.10,0.6850931.00,-8.35,-3.45,4.00,-0.25,0.03,-0.29,-67.12,-15.16,-1.0250982.00,-8.22,-3.30,3.72,0.06,0.02,-0.02,-67.12,-15.16,-1.0251034.00,-9.04,-1.75,3.41,0.39,0.17,0.09,-65.72,-14.81,-1.7051085.00,-9.47,-1.25,2.66,0.15,0.35,0.03,-65.72,-14.81,-1.7051137.00,-8.95,-2.21,3.13,0.01,0.05,-0.00,-65.72,-14.81,-1.7051188.00,-7.90,-2.83,2.32,-0.09,-0.08,0.19,-66.59,-12.87,-0.8551411.00,-8.85,-3.91,3.51,0.02,0.06,0.18,-66.59,-13.22,0.1751463.00,-9.52,-0.41,3.32,-0.08,-0.25,0.37,-66.59,-13.22,0.1751514.00,-9.08,-2.81,1.99,-0.04,-0.00,-0.01,-66.59,-13.22,0.1751566.00,-8.90,-0.50,4.35,0.01,0.31,-0.33,-66.07,-16.22,-0.6851617.00,-9.06,-3.08,3.66,0.06,0.17,0.05,-66.07,-16.22,-0.6851669.00,-9.08,-1.77,2.80,-0.04,-0.19,0.44,-66.59,-15.69,-0.1751721.00,-9.51,-1.58,3.41,0.20,0.02,0.20,-66.59,-15.69,-0.1751772.00,-9.53,-2.44,3.08,0.27,0.12,-0.22,-66.59,-15.69,-0.1751824.00,-9.17,-2.18,2.46,0.03,-0.02,-0.05,-64.84,-15.34,1.1951875.00,-9.86,-0.74,1.60,-0.11,-0.14,0.30,-64.84,-15.34,1.1951927.00,-10.23,0.41,0.64,-0.45,-0.21,-0.19,-65.19,-16.04,-0.1751978.00,-8.07,-3.56,3.68,-0.44,-0.45,-0.54,-65.19,-16.04,-0.1752030.00,-6.89,-4.87,5.73,0.50,-0.35,-0.22,-65.54,-12.16,-2.8952082.00,-9.57,-1.69,3.85,0.28,0.11,0.38,-65.54,-12.16,-2.8952133.00,-9.72,-0.47,3.61,-0.25,-0.05,0.06,-65.54,-12.16,-2.8952185.00,-8.43,-3.19,3.36,-0.14,0.12,0.05,-64.31,-15.16,-1.7052236.00,-9.22,-2.15,3.18,0.13,0.07,0.31,-64.31,-15.16,-1.7052288.00,-9.32,-1.50,2.09,-0.04,0.02,0.06,-64.31,-15.16,-1.7052511.00,-9.43,-0.79,4.02,0.06,0.15,0.05,-66.07,-16.22,-1.0252562.00,-8.92,-1.57,3.03,0.05,-0.09,0.30,-66.24,-16.40,0.1752614.00,-9.74,-1.16,2.25,-0.09,-0.31,0.12,-66.24,-16.40,0.1752666.00,-9.50,-0.44,2.77,-0.20,-0.26,-0.24,-66.07,-15.87,-1.0252717.00,-7.57,-3.38,5.11,-0.34,-0.55,-0.14,-66.07,-15.87,-1.0252769.00,-8.03,-3.97,4.81,-0.12,0.24,0.15,-66.07,-15.87,-1.0252821.00,-9.42,-1.98,1.87,-0.10,0.14,-0.10,-66.24,-13.93,-1.1952872.00,-8.91,-2.06,2.75,-0.06,0.01,0.07,-66.24,-13.93,-1.1952924.00,-9.62,-0.65,2.99,-0.17,0.01,-0.05,-66.42,-15.51,-1.0252976.00,-8.12,-2.53,3.62,-0.16,0.08,-0.28,-66.42,-15.51,-1.0253027.00,-8.33,-2.58,4.10,-0.00,0.34,-0.14,-66.42,-15.51,-1.0253079.00,-9.35,-0.99,1.90,-0.03,0.17,0.09,-65.89,-14.28,-0.5153130.00,-9.24,-2.38,3.19,0.08,-0.27,0.32,-65.89,-14.28,-0.5153182.00,-9.95,-0.93,3.69,0.13,-0.46,0.55,-65.19,-14.28,-2.2153234.00,-9.21,-1.16,2.78,-0.13,-0.06,0.09,-65.19,-14.28,-2.2153285.00,-9.15,-2.23,2.74,-0.22,0.45,-0.57,-65.19,-14.28,-2.2153337.00,-9.43,-1.40,2.80,0.06,0.27,0.04,-66.59,-15.69,-0.8553388.00,-8.85,-3.03,1.90,0.13,0.19,0.03,-66.59,-15.69,-0.8553440.00,-9.27,-1.66,2.55,-0.16,-0.36,0.32,-66.77,-14.81,1.3653659.00,-9.23,-1.66,2.58,0.07,-0.04,0.22,-66.24,-16.40,-0.8553711.00,-9.89,-0.72,3.26,0.05,0.20,-0.04,-64.84,-17.10,-0.8553763.00,-9.23,-1.61,2.54,0.13,0.03,-0.03,-64.84,-17.10,-0.8553815.00,-10.19,-1.43,3.48,-0.10,-0.56,0.07,-65.72,-16.57,1.0253866.00,-9.05,-1.50,2.55,-0.24,-0.79,-0.08,-65.72,-16.57,1.0253918.00,-8.27,-3.17,3.90,-0.14,0.30,0.12,-66.24,-16.04,-2.5553970.00,-9.39,-0.35,1.06,-0.12,0.22,0.48,-66.24,-16.04,-2.5554022.00,-10.22,-1.32,2.05,-0.07,-0.34,-0.34,-66.24,-16.04,-2.5554074.00,-7.19,-3.98,5.08,0.39,-0.31,-0.81,-65.89,-16.04,-2.8954125.00,-8.54,-3.58,3.78,0.22,0.50,0.02,-65.89,-16.04,-2.8954177.00,-9.66,-1.11,1.19,-0.31,0.21,0.02,-66.59,-15.69,-1.8754229.00,-11.51,-1.09,1.53,-0.09,-0.40,-0.11,-66.59,-15.69,-1.8754281.00,-8.06,-3.44,3.92,-0.10,-0.81,-0.93,-66.59,-15.69,-1.8754333.00,-7.41,-4.57,4.69,-0.01,-0.07,-0.26,-64.49,-11.46,-5.2754385.00,-8.78,-2.82,3.34,0.15,0.24,0.11,-64.49,-11.46,-5.2754436.00,-9.13,-1.87,3.00,0.15,0.12,-0.12,-65.72,-12.69,-4.4254488.00,-9.03,-2.34,3.14,0.25,0.06,-0.45,-65.72,-12.69,-4.4254540.00,-8.29,-3.47,3.73,0.83,0.17,-0.55,-65.89,-10.75,-4.2554592.00,-8.76,-3.15,2.53,0.81,0.38,-0.21,-65.89,-10.75,-4.2554644.00,-8.53,-2.75,3.51,0.33,0.41,0.73,-65.89,-10.75,-4.2554875.00,-8.65,-1.96,3.64,0.07,0.01,0.26,-65.72,-11.64,-4.7654926.00,-8.95,-2.18,3.23,0.03,0.13,0.12,-65.54,-13.22,-3.5754978.00,-8.61,-1.99,4.06,0.07,-0.01,0.03,-65.54,-13.22,-3.5755030.00,-8.88,-2.23,3.51,0.05,0.13,0.05,-65.54,-13.22,-3.5755082.00,-8.98,-2.40,3.10,0.12,0.10,-0.11,-66.59,-12.52,-2.8955134.00,-8.92,-2.43,3.15,-0.04,-0.06,-0.18,-66.59,-12.52,-2.8955186.00,-8.82,-2.02,3.56,-0.15,-0.21,-0.10,-66.95,-13.93,-3.5755238.00,-8.54,-2.88,4.14,0.04,-0.06,-0.11,-66.95,-13.93,-3.5755290.00,-9.07,-2.50,3.52,0.04,0.28,-0.22,-66.95,-13.93,-3.5755341.00,-9.42,-1.62,2.04,-0.50,0.28,0.14,-66.07,-11.99,-2.3855393.00,-7.96,-3.44,4.17,-0.15,0.01,-0.04,-66.07,-11.99,-2.3855445.00,-8.61,-2.96,3.23,0.06,0.21,0.08,-66.07,-10.93,-1.7055497.00,-9.33,-1.93,2.45,0.07,-0.03,-0.03,-66.07,-10.93,-1.7055549.00,-8.74,-2.90,3.33,0.11,-0.14,-0.08,-66.95,-10.40,-3.2355601.00,-8.79,-2.41,3.01,-0.02,-0.13,0.09,-66.95,-10.40,-3.2355652.00,-8.44,-3.18,4.16,-0.00,-0.08,0.19,-66.95,-10.40,-3.2355704.00,-9.50,-0.53,2.51,0.12,0.22,0.29,-66.59,-13.93,-2.5555756.00,-9.92,-3.46,2.20,-0.04,0.20,-0.69,-66.59,-13.93,-2.5555808.00,-8.84,-2.17,4.05,-0.38,-0.71,-0.15,-66.59,-11.81,-2.2156041.00,-9.19,-2.17,2.67,-0.01,0.06,0.08,-65.36,-11.28,-3.0656093.00,-8.53,-3.09,3.53,0.02,-0.07,0.12,-67.30,-13.93,-0.8556144.00,-8.74,-2.64,2.32,-0.03,-0.26,0.13,-67.30,-13.93,-0.8556197.00,-9.23,-1.46,3.78,-0.07,0.08,-0.21,-66.42,-14.81,-2.0456248.00,-9.18,-2.11,3.00,-0.02,0.23,-0.24,-66.42,-14.81,-2.0456300.00,-8.97,-1.30,2.06,-0.09,-0.02,0.26,-67.30,-13.22,-2.8956352.00,-8.92,-2.84,3.38,-0.15,-0.13,0.24,-67.30,-13.22,-2.8956404.00,-9.00,-1.55,1.83,-0.03,0.24,-0.17,-67.30,-13.22,-2.8956456.00,-8.68,-2.68,3.67,0.04,-0.03,0.14,-67.65,-13.57,-2.8956508.00,-9.62,-1.07,2.53,-0.12,-0.11,0.43,-67.65,-13.57,-2.8956560.00,-9.11,-1.96,1.93,0.07,0.20,-0.06,-66.95,-15.69,-2.5556612.00,-8.50,-2.96,2.71,0.07,0.17,-0.20,-66.95,-15.69,-2.5556664.00,-10.10,-0.48,2.85,-0.28,-0.10,0.42,-66.95,-15.69,-2.5556716.00,-8.99,-1.75,1.91,-0.26,0.04,0.11,-67.82,-15.16,-2.0456768.00,-8.60,-2.54,2.81,0.03,-0.02,0.18,-67.82,-15.16,-2.0456820.00,-9.11,-2.11,2.25,0.01,-0.03,0.11,-66.77,-14.81,0.3456872.00,-9.37,-1.09,3.59,-0.14,0.21,-0.31,-66.77,-14.81,0.3456924.00,-9.48,-2.38,1.74,-0.20,-0.01,0.05,-67.65,-14.99,0.1756976.00,-8.07,-2.95,4.29,-0.10,-0.18,0.19,-67.65,-14.99,0.1757202.00,-8.80,-1.68,3.09,-0.26,-0.73,-0.31,-67.12,-15.16,-0.6857254.00,-8.57,-2.22,3.77,-0.12,-0.30,-0.07,-67.12,-15.16,-0.6857306.00,-7.89,-4.08,4.53,0.13,-0.21,-0.38,-67.12,-14.46,-3.4057358.00,-9.12,-2.16,3.01,0.24,0.49,0.13,-67.12,-14.46,-3.4057410.00,-9.63,-0.80,1.20,0.12,0.31,0.15,-67.12,-14.46,-3.4057462.00,-8.71,-2.19,3.20,0.03,-0.16,0.26,-67.65,-14.63,-1.5357514.00,-8.87,-2.37,3.07,-0.07,-0.24,0.29,-67.65,-14.63,-1.5357566.00,-9.44,-2.16,2.93,-0.21,0.14,-0.17,-66.95,-14.99,-2.2157618.00,-9.19,-1.55,2.70,0.01,0.18,0.04,-66.95,-14.99,-2.2157670.00,-8.97,-2.17,3.01,-0.07,-0.12,0.31,-66.95,-14.99,-2.2157722.00,-9.32,-2.27,2.98,-0.13,-0.12,0.20,-67.30,-17.10,-1.1957774.00,-9.48,-1.71,2.63,-0.13,0.19,-0.10,-67.30,-17.10,-1.1957826.00,-9.06,-2.14,2.33,-0.06,0.08,0.09,-65.89,-16.75,-1.1957878.00,-9.45,-1.05,2.92,-0.01,-0.13,0.37,-65.89,-16.75,-1.1957930.00,-9.77,-1.07,3.74,-0.05,0.01,-0.00,-66.77,-18.33,-1.3657982.00,-8.99,-2.16,2.92,-0.02,0.06,-0.21,-66.77,-18.33,-1.3658034.00,-9.28,-2.03,2.64,-0.24,-0.12,0.21,-66.77,-18.33,-1.3658086.00,-9.44,-1.36,3.04,-0.27,-0.04,0.12,-67.30,-17.81,-0.8558138.00,-9.19,-1.75,2.16,-0.19,0.20,-0.09,-67.30,-17.81,-0.8558376.00,-9.16,-2.58,1.52,-0.29,0.36,0.00,-67.65,-18.51,-2.2158428.00,-10.86,0.40,1.40,0.12,-0.66,-0.40,-67.65,-18.51,-2.2158480.00,-8.05,-1.97,3.99,0.41,-0.29,-0.36,-67.30,-17.81,-1.8758532.00,-9.64,-3.98,2.19,0.27,0.20,-0.53,-67.30,-17.81,-1.8758584.00,-8.13,-2.73,4.06,0.03,-0.22,0.09,-66.77,-15.51,-3.7458636.00,-9.37,-1.34,3.23,0.32,0.01,0.21,-66.77,-15.51,-3.7458688.00,-9.26,-1.23,3.09,0.18,0.06,-0.05,-66.95,-16.04,-4.5958740.00,-8.80,-3.00,3.24,0.13,0.38,-0.03,-66.95,-16.04,-4.5958792.00,-9.20,-1.21,2.32,0.06,0.11,0.16,-66.95,-16.04,-4.5958844.00,-9.02,-2.35,3.53,-0.08,-0.12,0.14,-67.47,-16.57,-2.7258896.00,-8.79,-2.08,3.02,-0.03,-0.26,0.18,-67.47,-16.57,-2.7258948.00,-9.48,-0.71,3.13,-0.03,0.03,-0.28,-65.89,-17.10,-2.5559001.00,-8.81,-3.19,3.47,-0.04,0.16,-0.24,-65.89,-17.10,-2.5559053.00,-9.50,-2.04,3.45,-0.01,0.15,0.11,-65.89,-17.10,-2.5559105.00,-8.33,-3.12,1.32,-0.04,0.64,-0.50,-67.30,-16.75,-1.8759157.00,-9.02,-1.91,2.10,0.07,-0.10,-0.02,-67.30,-16.75,-1.8759209.00,-8.57,-3.03,1.85,-0.40,-0.43,0.26,-65.89,-14.28,-0.5159261.00,-9.84,-2.47,3.65,-0.48,-0.39,0.50,-65.89,-14.28,-0.5159313.00,-9.12,-2.29,3.62,-0.16,-0.06,0.22,-67.30,-17.81,-3.2359537.00,-9.81,-1.31,3.28,-0.00,0.03,0.05,-66.95,-16.40,-0.8559589.00,-8.80,-2.11,2.41,-0.02,0.19,-0.06,-66.77,-19.04,-1.3659641.00,-8.87,-1.64,1.69,0.17,0.07,0.20,-66.77,-19.04,-1.3659694.00,-8.96,-2.68,2.78,0.08,-0.16,0.10,-67.30,-18.16,-0.8559746.00,-9.45,-1.50,2.43,-0.02,-0.20,0.09,-67.30,-18.16,-0.8559798.00,-9.11,-1.87,2.55,-0.14,0.20,-0.32,-68.18,-17.63,-2.0459850.00,-9.44,-1.59,3.11,-0.04,0.09,0.07,-68.18,-17.63,-2.0459903.00,-9.31,-0.95,2.30,-0.10,0.29,0.00,-68.18,-17.63,-2.0459955.00,-8.95,-2.62,2.10,-0.16,0.21,-0.17,-68.70,-18.16,-0.1760007.00,-9.12,-2.38,2.27,-0.13,-0.22,0.35,-68.70,-18.16,-0.1760059.00,-9.50,-1.62,2.91,-0.06,0.02,0.07,-67.30,-18.51,-1.5360112.00,-9.27,0.04,3.68,-0.07,0.17,-0.18,-67.30,-18.51,-1.5360164.00,-9.12,-2.66,1.96,-0.07,0.10,-0.03,-67.30,-18.51,-1.5360216.00,-10.42,0.14,2.73,-0.19,-0.25,0.45,-67.12,-16.22,-1.7060269.00,-9.49,-1.45,3.06,-0.13,-0.05,0.08,-67.12,-16.22,-1.7060321.00,-9.20,-1.64,2.27,-0.17,0.13,-0.05,-66.95,-19.57,-3.2360373.00,-9.68,-1.14,2.91,-0.30,-0.10,0.14,-66.95,-19.57,-3.2360425.00,-9.28,-1.95,1.67,-0.07,0.06,0.10,-66.95,-19.57,-3.2360478.00,-9.54,-1.50,2.68,-0.08,-0.00,-0.01,-67.12,-19.04,-1.3660703.00,-9.73,-0.87,2.54,-0.18,-0.06,-0.06,-66.07,-20.45,-2.0460755.00,-8.53,-4.07,-0.21,-0.19,0.46,-0.40,-66.07,-20.45,-2.0460807.00,-8.88,-2.21,1.56,-0.06,0.07,0.07,-66.07,-20.45,-2.0460860.00,-9.41,-0.99,1.81,-0.02,-0.38,0.57,-66.77,-19.39,-1.7060912.00,-9.56,-1.12,2.78,-0.02,-0.13,0.25,-66.77,-19.39,-1.7060964.00,-9.38,-0.97,2.77,-0.35,0.26,-0.32,-67.82,-21.51,-3.7461017.00,-9.04,-1.08,2.19,-0.52,0.46,-0.33,-67.82,-21.51,-3.7461069.00,-8.52,-3.41,0.64,-0.18,0.14,0.02,-68.00,-20.27,-0.1761121.00,-9.61,-1.63,3.21,0.03,-0.43,0.33,-68.00,-20.27,-0.1761174.00,-9.81,-1.18,2.15,0.02,-0.15,0.10,-68.00,-20.27,-0.1761226.00,-9.49,-1.86,1.97,-0.42,0.42,-0.26,-68.88,-20.80,-2.3861279.00,-9.40,-0.88,0.69,-0.27,0.26,0.18,-68.88,-20.80,-2.3861331.00,-12.58,-0.14,-1.31,0.31,-1.45,-0.34,-67.65,-20.63,-0.8561383.00,-8.48,-5.56,8.50,1.09,-2.17,-0.52,-67.65,-20.63,-0.8561436.00,-6.38,-3.41,8.65,1.11,-1.16,-0.64,-67.65,-20.63,-0.8561488.00,-5.20,-4.18,4.53,1.13,0.85,-2.08,-64.84,-17.81,-13.4261540.00,-3.74,-2.78,5.31,1.19,0.99,-1.99,-64.84,-17.81,-13.4261593.00,-8.45,-2.33,0.12,1.11,1.81,-1.60,-65.36,-9.52,-6.7961645.00,-9.53,-3.49,1.61,0.88,1.47,-0.25,-65.36,-9.52,-6.7961875.00,-8.47,-3.76,4.14,-0.20,-0.47,0.13,-65.89,-7.93,1.8761927.00,-8.98,-3.54,2.94,-0.07,-0.07,0.16,-65.89,-7.93,1.8761980.00,-9.03,-2.31,3.18,-0.01,0.07,0.25,-68.18,-9.52,-1.0262032.00,-9.15,-1.89,2.84,-0.10,0.03,0.18,-68.18,-9.52,-1.0262084.00,-9.01,-2.74,2.73,-0.02,0.10,-0.02,-66.95,-11.11,0.5162137.00,-8.94,-2.51,3.03,-0.07,0.01,0.07,-66.95,-11.11,0.5162189.00,-8.92,-2.34,2.76,-0.04,-0.01,0.10,-66.59,-11.46,-0.8562242.00,-8.77,-2.67,3.64,-0.09,-0.26,0.24,-66.59,-11.46,-0.8562294.00,-9.24,-2.31,3.25,-0.02,-0.23,0.20,-66.59,-11.46,-0.8562346.00,-9.51,-2.41,2.62,0.12,0.38,-0.58,-67.47,-11.64,-1.7062399.00,-8.74,-1.89,3.29,0.26,0.94,-0.67,-67.47,-11.64,-1.7062451.00,-8.87,-2.89,2.32,0.10,0.15,0.04,-66.59,-8.64,2.5562503.00,-8.47,-3.46,2.56,-0.21,-0.53,0.25,-66.59,-8.64,2.5562556.00,-9.37,-2.96,2.97,-0.11,-0.30,0.13,-66.59,-8.64,2.5562608.00,-9.45,-1.89,3.50,-0.11,-0.02,-0.02,-67.30,-9.70,0.1762661.00,-9.00,-2.16,2.93,-0.14,-0.04,0.17,-67.30,-9.70,0.1762713.00,-9.00,-1.97,3.65,-0.00,0.19,-0.05,-65.89,-11.11,0.1762765.00,-8.97,-2.05,2.55,0.12,0.13,0.03,-65.89,-11.11,0.1762818.00,-8.85,-2.36,3.18,-0.00,-0.13,0.17,-65.89,-11.11,0.1762870.00,-9.16,-2.72,2.49,-0.06,-0.25,0.07,-66.59,-11.46,1.1963110.00,-9.18,-2.48,1.95,0.06,0.48,-0.37,-66.77,-12.34,0.0063162.00,-8.88,-2.91,2.02,0.03,-0.02,0.15,-66.77,-12.34,0.0063215.00,-10.13,-0.39,1.80,0.10,-0.54,0.09,-66.95,-13.22,1.1963267.00,-8.15,-1.65,3.48,-0.07,-0.11,-0.05,-66.95,-13.22,1.1963319.00,-8.46,-3.71,3.63,-0.13,-0.03,-0.22,-66.95,-13.22,1.1963372.00,-9.05,-2.30,2.92,0.14,0.16,0.06,-66.59,-10.40,0.5163424.00,-9.36,-1.78,2.57,-0.06,-0.13,-0.01,-66.59,-10.40,0.5163477.00,-8.76,-2.67,3.28,-0.12,-0.12,-0.06,-65.01,-10.58,0.0063529.00,-8.92,-2.34,3.05,-0.01,0.01,0.04,-65.01,-10.58,0.0063582.00,-8.85,-2.45,3.25,-0.01,0.11,0.03,-65.72,-10.93,-1.7063634.00,-8.79,-2.44,3.00,0.08,0.22,0.18,-65.72,-10.93,-1.7063687.00,-9.05,-2.19,3.02,-0.09,-0.09,0.06,-65.72,-10.93,-1.7063739.00,-9.02,-2.44,3.29,-0.00,-0.09,0.05,-66.24,-11.81,2.5563791.00,-9.55,-2.53,3.61,0.07,0.17,-0.22,-66.24,-11.81,2.5563844.00,-8.71,-2.72,1.73,-0.03,0.37,-0.38,-65.72,-11.28,0.3463896.00,-8.19,-3.70,3.00,0.07,0.23,0.05,-65.72,-11.28,0.3463949.00,-8.88,-1.60,2.19,0.02,-0.10,0.25,-66.42,-11.64,2.0464001.00,-9.06,-2.15,2.66,0.05,-0.20,0.15,-66.42,-11.64,2.0464054.00,-9.24,-1.84,3.41,0.02,0.01,-0.08,-66.42,-11.64,2.0464287.00,-9.43,-1.72,2.11,-0.13,0.21,0.07,-67.47,-12.34,-0.3464339.00,-10.18,-3.03,1.01,0.03,-0.12,0.01,-66.59,-11.11,3.5764392.00,-8.17,-2.85,3.98,-0.02,-0.66,-0.33,-66.59,-11.11,3.5764445.00,-8.85,-3.00,3.24,-0.29,-0.04,-0.11,-65.01,-12.34,1.0264497.00,-7.97,-4.09,3.80,0.01,-0.08,-0.06,-65.01,-12.34,1.0264550.00,-8.67,-2.73,3.48,0.40,0.13,0.09,-65.01,-12.34,1.0264603.00,-9.63,-1.32,2.32,-0.01,-0.09,-0.03,-65.01,-12.69,-0.3464655.00,-8.64,-2.90,3.32,-0.16,-0.26,-0.11,-65.01,-12.69,-0.3464708.00,-8.59,-2.64,3.71,0.00,-0.11,0.37,-64.84,-12.52,-0.5164761.00,-9.49,-2.03,3.23,0.03,0.06,0.33,-64.84,-12.52,-0.5164813.00,-9.82,-1.80,3.08,0.07,0.39,-0.45,-64.84,-12.52,-0.5164866.00,-9.15,-0.83,4.05,0.05,-0.10,0.09,-65.72,-11.28,0.6864918.00,-8.78,-2.53,2.90,-0.17,-0.19,0.17,-65.72,-11.28,0.6864971.00,-9.12,-2.38,2.35,-0.17,-0.02,0.12,-65.72,-13.75,-0.6865024.00,-8.73,-2.90,2.69,0.27,0.42,-0.19,-65.72,-13.75,-0.6865076.00,-8.53,-2.86,2.68,0.33,0.27,-0.38,-67.30,-11.46,0.5165129.00,-9.69,-1.08,2.65,0.04,-0.15,0.09,-67.30,-11.46,0.5165182.00,-9.36,-2.21,2.91,-0.27,-0.04,0.02,-67.30,-11.46,0.5165234.00,-8.73,-2.81,3.16,-0.19,0.14,0.13,-64.84,-12.16,1.5365453.00,-9.53,-0.99,3.06,-0.14,0.30,-0.17,-66.77,-12.69,2.0465506.00,-8.58,-2.52,1.97,-0.29,0.00,0.30,-66.77,-12.69,2.0465559.00,-9.25,-1.73,2.24,-0.19,-0.08,0.31,-66.77,-12.69,2.0465612.00,-9.40,-1.76,2.91,0.08,0.24,-0.09,-66.59,-13.22,1.5365664.00,-9.04,-1.55,3.17,0.11,0.17,-0.19,-66.59,-13.22,1.5365717.00,-9.37,-2.25,2.00,0.08,-0.12,0.06,-65.89,-13.22,3.5765770.00,-9.44,-0.93,1.90,-0.09,-0.40,-0.24,-65.89,-13.22,3.5765822.00,-8.36,-3.12,3.87,-0.22,-0.44,-0.36,-65.89,-13.22,3.5765875.00,-9.07,-2.30,2.84,-0.01,0.07,-0.01,-66.95,-12.16,-0.8565928.00,-9.52,-1.18,2.40,-0.08,-0.10,-0.34,-66.95,-12.16,-0.8565981.00,-8.78,-3.04,2.58,-0.16,-0.03,-0.16,-65.01,-10.93,-1.3666033.00,-9.24,-2.13,2.23,-0.27,0.06,-0.07,-65.01,-10.93,-1.3666086.00,-8.57,-3.31,3.19,-0.01,0.06,0.14,-66.59,-11.11,-0.8566139.00,-8.56,-3.16,3.70,0.17,-0.11,-0.01,-66.59,-11.11,-0.8566192.00,-8.36,-2.78,3.57,0.31,-0.06,0.17,-66.59,-11.11,-0.8566244.00,-8.93,-1.58,3.04,0.27,-0.05,0.15,-65.19,-10.75,-0.5166297.00,-9.49,-1.70,2.76,-0.01,-0.15,0.02,-65.19,-10.75,-0.5166350.00,-8.86,-2.39,3.39,0.00,-0.17,-0.04,-66.59,-12.52,-0.8566403.00,-8.84,-2.42,3.36,-0.02,-0.13,-0.04,-66.59,-12.52,-0.8566644.00,-11.05,-2.80,3.31,0.12,0.33,0.16,-65.72,-12.69,-2.0466696.00,-9.27,-1.84,3.09,-0.06,0.01,-0.01,-65.72,-12.69,-2.0466749.00,-8.94,-2.68,3.08,-0.04,-0.10,0.19,-65.54,-10.40,0.1766802.00,-9.00,-1.93,3.03,0.05,-0.16,0.20,-65.54,-10.40,0.1766855.00,-8.99,-1.92,2.96,0.01,-0.09,0.00,-65.72,-11.99,-0.6866907.00,-9.14,-2.36,3.57,0.07,0.41,-0.35,-65.72,-11.99,-0.6866960.00,-8.63,-3.08,3.03,-0.05,0.21,-0.01,-66.77,-10.93,-0.6867013.00,-8.63,-2.94,2.66,-0.09,-0.12,0.25,-66.77,-10.93,-0.6867066.00,-8.95,-2.19,2.67,0.09,0.29,-0.21,-66.77,-10.93,-0.6867119.00,-8.89,-2.46,3.55,0.01,0.08,0.00,-65.36,-12.69,0.3467172.00,-9.15,-1.99,3.18,-0.27,-0.08,0.25,-65.36,-12.69,0.3467224.00,-9.29,-1.82,2.68,-0.13,0.19,-0.01,-66.42,-12.69,0.3467277.00,-8.67,-2.23,2.19,0.09,0.06,0.21,-66.42,-12.69,0.3467330.00,-9.04,-2.11,2.83,-0.12,-0.26,0.37,-66.59,-14.63,-0.1767383.00,-9.98,-1.54,2.54,-0.19,-0.34,0.30,-66.59,-14.63,-0.1767436.00,-8.78,-2.93,3.19,0.06,0.70,-0.76,-66.59,-14.63,-0.1767488.00,-8.53,-2.48,1.20,-0.30,0.77,-0.45,-66.24,-14.28,2.8967541.00,-8.91,-2.49,2.24,-0.08,0.10,0.01,-66.24,-14.28,2.8967594.00,-8.67,-2.76,1.84,0.13,-0.45,0.29,-67.82,-11.64,3.7467812.00,-9.10,-2.10,2.69,-0.23,0.10,-0.01,-65.54,-12.87,-0.5167865.00,-8.80,-3.02,2.38,0.07,0.09,0.04,-66.77,-14.46,1.0267918.00,-9.30,-1.45,2.71,0.15,-0.06,0.19,-66.77,-14.46,1.0267971.00,-8.82,-2.46,2.35,-0.01,-0.18,0.04,-65.89,-14.63,1.8768024.00,-9.65,-0.96,3.05,-0.00,-0.22,0.11,-65.89,-14.63,1.8768077.00,-8.78,-2.89,1.70,-0.07,0.28,-0.17,-65.89,-14.63,1.8768130.00,-8.99,-2.32,2.54,-0.14,0.05,0.04,-66.07,-13.40,0.0068183.00,-9.55,-1.96,3.89,-0.11,0.15,-0.11,-66.07,-13.40,0.0068236.00,-9.06,-2.29,2.19,-0.16,0.03,0.10,-66.77,-13.75,2.0468289.00,-9.12,-2.75,2.37,-0.09,-0.17,0.22,-66.77,-13.75,2.0468341.00,-9.32,-1.60,2.59,-0.06,-0.01,0.02,-65.72,-14.46,0.6868395.00,-9.25,-2.21,2.71,-0.01,0.11,-0.16,-65.72,-14.46,0.6868447.00,-8.87,-1.68,2.30,-0.17,-0.17,0.28,-65.72,-14.46,0.6868500.00,-9.21,-2.31,2.26,-0.21,0.02,-0.05,-66.77,-15.51,1.7068553.00,-9.32,-1.99,2.45,-0.13,0.19,0.01,-66.77,-15.51,1.7068606.00,-8.75,-3.62,2.35,0.03,-0.09,0.05,-66.77,-15.51,2.3868659.00,-9.57,-1.62,2.93,0.05,-0.37,0.42,-66.77,-15.51,2.3868712.00,-9.20,-1.61,2.16,-0.07,-0.05,0.03,-66.59,-16.04,0.8568765.00,-9.30,-1.87,3.73,-0.14,0.46,-0.33,-66.59,-16.04,0.8568818.00,-9.22,-1.87,2.28,-0.03,0.12,-0.03,-66.59,-16.04,0.8569071.00,-9.43,-0.42,1.33,-0.25,0.08,0.27,-66.59,-14.28,0.8569124.00,-8.91,-3.14,2.01,0.02,0.06,0.01,-68.53,-15.51,1.3669177.00,-9.70,-1.30,3.38,0.08,-0.02,0.08,-68.53,-15.51,1.3669230.00,-9.20,-0.50,-0.62,-0.07,0.39,0.03,-66.77,-16.22,1.7069283.00,-8.22,-3.76,0.77,0.01,0.15,-0.29,-66.77,-16.22,1.7069336.00,-10.23,-0.76,4.16,0.07,-0.36,0.14,-66.07,-14.81,0.3469388.00,-10.54,-0.76,0.91,-0.05,-0.20,0.03,-66.07,-14.81,0.3469442.00,-9.48,-0.61,1.45,-0.01,-0.26,-0.55,-66.07,-14.81,0.3469494.00,-8.44,-3.68,2.53,0.38,-0.21,-0.35,-66.42,-13.40,1.0269547.00,-7.83,-3.55,4.65,0.51,-0.31,-0.11,-66.42,-13.40,1.0269600.00,-8.42,-3.07,4.00,0.32,-0.12,0.02,-66.42,-13.75,-2.0469654.00,-9.41,-1.51,2.21,0.27,-0.02,-0.20,-66.42,-13.75,-2.0469706.00,-9.16,-1.99,2.68,-0.04,0.02,-0.16,-66.42,-13.75,-2.0469759.00,-12.01,-3.23,2.51,0.16,0.49,0.17,-66.42,-11.99,-0.6869812.00,-9.24,-2.24,2.42,-0.05,-0.10,0.01,-66.42,-11.99,-0.6869866.00,-8.76,-2.92,3.47,-0.01,-0.29,0.14,-66.77,-13.75,-1.3669919.00,-9.09,-2.06,2.23,-0.02,0.02,0.03,-66.77,-13.75,-1.3669972.00,-9.14,-1.74,2.71,0.05,0.39,-0.09,-67.65,-13.57,-1.1970025.00,-8.96,-1.85,1.91,-0.07,0.15,0.04,-67.65,-13.57,-1.1970258.00,-9.81,-0.05,4.66,0.23,0.44,-0.19,-65.72,-14.81,-1.7070311.00,-8.98,-2.53,2.99,0.13,-0.03,-0.17,-65.72,-14.81,-1.7070364.00,-8.45,-2.28,3.97,0.02,-0.38,0.18,-67.65,-13.22,0.5170417.00,-9.30,-1.68,2.80,-0.20,-0.04,0.21,-67.65,-13.22,0.5170471.00,-8.92,-2.41,3.25,-0.24,-0.02,0.22,-66.59,-12.52,-0.5170524.00,-8.91,-2.84,3.67,-0.04,0.14,-0.00,-66.59,-12.52,-0.5170577.00,-8.82,-2.68,1.91,0.09,0.39,-0.21,-66.59,-12.52,-0.5170630.00,-9.06,-2.11,2.43,0.19,0.09,0.06,-66.07,-13.75,-0.3470683.00,-8.94,-2.02,2.06,0.06,-0.10,0.16,-66.07,-13.75,-0.3470736.00,-8.72,-2.70,1.96,-0.01,-0.26,0.05,-66.07,-14.46,-0.3470789.00,-10.04,0.57,4.03,-0.11,0.03,-0.07,-66.07,-14.46,-0.3470842.00,-9.23,-2.44,3.04,-0.08,0.23,-0.06,-66.07,-14.46,-0.3470896.00,-9.19,-1.10,2.44,-0.20,0.13,0.08,-67.47,-13.75,0.6870949.00,-8.96,-2.40,2.18,-0.11,0.12,0.00,-67.47,-13.75,0.6871002.00,-8.58,-2.50,2.00,-0.05,-0.05,0.20,-66.42,-14.10,1.7071055.00,-9.35,-2.30,3.46,-0.10,-0.19,0.21,-66.42,-14.10,1.7071108.00,-9.59,-1.16,3.33,-0.09,0.18,-0.05,-65.89,-15.69,-0.5171161.00,-10.15,-1.81,0.76,-0.01,-0.03,-0.06,-65.89,-15.69,-0.5171214.00,-7.09,-4.16,4.70,-0.15,-0.57,-0.09,-66.24,-15.69,-0.1771410.00,-8.47,-5.56,3.59,-0.29,-1.56,-0.73,-66.77,-14.46,0.3471463.00,-8.73,-4.53,5.44,0.23,-1.61,0.18,-66.77,-14.46,0.3471516.00,-7.65,-2.04,4.97,0.67,-1.06,0.54,-63.43,-11.11,-9.0071569.00,-6.83,-1.77,7.56,1.02,-1.12,0.20,-63.43,-11.11,-9.0071622.00,-7.36,-0.98,5.75,-0.58,-0.31,0.15,-61.32,-14.99,-16.1471676.00,-6.42,-1.60,2.99,1.38,-0.27,-0.03,-61.32,-14.99,-16.1471729.00,-6.55,-0.73,5.65,4.35,-0.19,0.61,-61.50,-18.69,-13.9371782.00,-7.07,2.34,5.06,4.35,-1.19,1.15,-61.50,-18.69,-13.9371835.00,-5.50,5.04,6.29,-2.11,-0.86,2.12,-61.50,-18.69,-13.9371888.00,-8.34,6.30,6.28,2.87,-0.55,0.91,-58.69,-37.02,-13.2571941.00,-4.00,4.52,8.95,3.03,0.23,0.71,-58.69,-37.02,-13.2571994.00,-9.61,6.77,2.95,-1.15,0.04,0.67,-55.88,-45.48,-5.1072047.00,-6.68,9.24,5.25,0.35,-0.22,-0.32,-55.88,-45.48,-5.1072100.00,-6.81,9.82,4.21,-0.28,0.34,-2.30,-57.28,-42.31,-4.7672154.00,-5.12,1.70,5.20,-1.69,-0.26,-4.32,-57.28,-42.31,-4.7672207.00,-6.48,1.94,7.70,-4.38,0.10,-3.85,-57.28,-42.31,-4.7672260.00,-5.83,-2.91,4.01,-4.38,3.33,-3.49,-65.01,-13.75,-8.8372313.00,-6.98,-5.25,-0.37,-4.02,3.35,-2.12,-65.01,-13.75,-8.8372366.00,-6.78,-6.68,-2.42,-2.33,3.10,-1.06,-59.04,6.35,13.9372602.00,-4.77,-7.55,-4.13,-0.40,1.42,-0.64,-40.41,10.93,35.3372656.00,-4.32,-7.80,-5.16,-2.47,0.84,0.35,-40.41,10.93,35.3372709.00,-5.66,-4.80,-4.12,-3.38,0.23,1.01,-40.41,10.93,35.3372762.00,-5.71,-2.36,-6.40,-1.83,0.87,0.14,-40.59,-1.94,43.6572815.00,-4.20,-3.87,-5.13,-1.08,1.00,-0.50,-40.59,-1.94,43.6572868.00,-3.04,-2.76,-7.71,-2.23,1.45,0.02,-35.67,-9.70,47.3972922.00,-2.20,0.16,-11.97,-2.85,1.34,0.91,-35.67,-9.70,47.3972975.00,-1.75,3.08,-11.77,-1.31,1.79,-0.08,-26.01,-23.27,48.5873028.00,0.37,-0.80,-14.30,-0.29,1.60,-0.95,-26.01,-23.27,48.5873081.00,-1.35,1.67,-11.12,-0.65,0.19,-0.22,-26.01,-23.27,48.5873134.00,-1.47,-0.65,-9.01,0.00,0.58,-0.83,-22.32,-24.51,46.7173187.00,-0.62,-1.22,-10.83,-0.66,0.71,-0.29,-22.32,-24.51,46.7173241.00,-0.66,1.22,-10.51,-0.00,0.46,0.04,-18.45,-26.27,46.7173294.00,-0.69,-0.54,-9.06,0.19,0.22,-0.08,-18.45,-26.27,46.7173347.00,-0.83,0.51,-9.73,-0.59,0.53,0.09,-18.45,-26.27,46.7173400.00,0.07,0.51,-9.13,-0.60,1.02,0.09,-17.22,-25.74,46.5473453.00,-0.04,0.92,-10.70,0.89,-0.07,-0.26,-17.22,-25.74,46.5473507.00,0.73,-0.26,-9.97,0.91,-0.28,-0.39,-14.23,-26.27,46.0373560.00,-0.07,0.99,-10.75,-0.04,-0.44,-0.23,-14.23,-26.27,46.0373788.00,0.13,-0.12,-10.09,-0.00,-0.00,0.00,-16.69,-25.56,45.6973842.00,0.13,0.01,-10.17,-0.00,-0.00,0.00,-16.69,-25.56,45.6973895.00,0.13,0.02,-10.17,-0.00,0.00,0.00,-15.99,-25.21,45.6973949.00,0.14,0.02,-10.20,-0.00,-0.00,0.00,-15.99,-25.21,45.6974002.00,0.13,0.01,-10.22,-0.00,-0.00,0.00,-17.92,-25.03,45.8674055.00,0.14,0.02,-10.17,-0.00,-0.00,0.00,-17.92,-25.03,45.8674108.00,0.14,0.03,-10.18,-0.00,0.00,0.00,-17.04,-23.80,45.3574162.00,0.14,0.02,-10.22,-0.00,0.00,0.00,-17.04,-23.80,45.3574215.00,0.14,0.01,-10.20,-0.00,0.00,0.00,-17.04,-23.80,45.3574268.00,0.15,0.02,-10.20,-0.00,0.00,0.00,-15.64,-25.21,46.7174321.00,0.14,0.02,-10.20,-0.00,0.00,0.00,-15.64,-25.21,46.7174375.00,0.14,0.01,-10.18,-0.00,0.00,0.00,-16.69,-25.56,45.6974428.00,0.14,0.01,-10.19,-0.00,-0.00,0.00,-16.69,-25.56,45.6974481.00,0.14,0.02,-10.20,-0.00,-0.00,0.00,-16.52,-25.39,45.5274534.00,0.14,0.03,-10.19,-0.00,-0.00,0.00,-16.52,-25.39,45.5274588.00,0.16,0.04,-10.23,-0.00,-0.00,0.00,-16.52,-25.39,45.5274641.00,0.09,0.06,-10.22,0.00,0.00,0.00,-17.57,-23.98,45.5274694.00,0.14,0.00,-10.18,-0.00,-0.00,0.00,-17.57,-23.98,45.5274748.00,0.15,-0.00,-10.23,0.00,-0.00,0.00,-16.87,-25.03,44.8474969.00,0.15,0.01,-10.20,-0.00,-0.00,0.00,-16.34,-24.15,46.3775022.00,0.18,0.03,-10.21,-0.00,0.00,0.00,-16.34,-22.74,45.3575076.00,0.09,0.02,-10.23,-0.00,0.00,0.00,-16.34,-22.74,45.3575129.00,0.21,0.02,-10.16,-0.00,0.00,0.00,-14.94,-24.86,45.6975182.00,0.19,0.00,-10.10,0.00,0.00,0.00,-14.94,-24.86,45.6975236.00,0.10,0.04,-10.23,-0.00,-0.00,0.00,-15.46,-24.68,45.1875289.00,0.17,0.02,-10.22,-0.00,-0.00,0.00,-15.46,-24.68,45.1875342.00,0.14,0.03,-10.21,-0.00,0.00,0.00,-15.46,-24.68,45.1875396.00,0.12,0.01,-10.17,-0.00,-0.00,0.00,-15.81,-25.39,45.8675449.00,0.14,0.02,-10.17,-0.00,-0.00,0.00,-15.81,-25.39,45.8675502.00,0.13,0.02,-10.21,-0.00,0.00,0.00,-16.52,-25.03,45.1875556.00,0.15,0.03,-10.18,-0.00,-0.00,0.00,-16.52,-25.03,45.1875609.00,0.13,0.03,-10.19,-0.00,0.00,0.00,-16.52,-25.03,45.1875662.00,0.13,0.02,-10.22,-0.00,-0.00,0.00,-16.52,-25.03,45.1875716.00,0.14,0.02,-10.20,-0.00,-0.00,0.00,-16.52,-25.03,45.1875769.00,0.15,0.02,-10.18,-0.00,0.00,0.00,-16.69,-26.27,45.3575823.00,0.13,0.02,-10.21,-0.00,-0.00,0.00,-16.69,-26.27,45.3575876.00,0.15,0.03,-10.19,-0.00,-0.00,0.00,-16.34,-25.56,48.0775929.00,0.14,0.01,-10.19,-0.00,-0.00,0.00,-16.34,-25.56,48.0775983.00,0.13,0.03,-10.19,-0.00,0.00,0.00,-15.11,-24.33,46.2076212.00,0.10,0.02,-10.14,-0.00,-0.00,0.00,-15.46,-24.33,45.8676265.00,0.12,0.01,-10.22,-0.00,-0.00,0.00,-16.87,-25.03,45.1876319.00,0.13,-0.00,-10.19,-0.00,-0.00,0.00,-16.87,-25.03,45.1876372.00,0.13,0.01,-10.21,-0.00,0.00,0.00,-16.17,-25.39,45.8676426.00,0.14,0.01,-10.17,-0.00,0.00,0.00,-16.17,-25.39,45.8676479.00,0.13,0.01,-10.21,0.00,0.00,0.00,-15.99,-23.80,46.3776533.00,0.14,0.01,-10.20,-0.00,-0.00,0.00,-15.99,-23.80,46.3776586.00,0.14,0.02,-10.21,-0.00,-0.00,0.00,-15.99,-23.80,46.3776640.00,0.13,0.02,-10.20,-0.00,-0.00,0.00,-15.99,-25.92,46.0376693.00,0.13,0.02,-10.23,-0.00,0.00,0.00,-15.99,-25.92,46.0376746.00,0.12,0.04,-10.19,-0.00,0.00,0.00,-15.29,-24.86,46.3776800.00,0.12,0.01,-10.22,-0.00,-0.00,0.00,-15.29,-24.86,46.3776853.00,0.14,0.04,-10.17,-0.00,-0.00,0.00,-15.29,-24.86,46.3776907.00,0.13,0.00,-10.21,0.00,-0.00,0.00,-15.29,-25.56,47.3976960.00,0.14,0.03,-10.17,-0.00,0.00,0.00,-15.29,-25.56,47.3977014.00,0.13,0.01,-10.20,0.00,0.00,0.00,-15.81,-24.33,46.5477068.00,0.12,0.03,-10.17,-0.00,-0.00,0.00,-15.81,-24.33,46.5477121.00,0.13,0.01,-10.20,-0.00,0.00,0.00,-15.81,-22.92,46.5477175.00,0.14,0.04,-10.20,-0.00,-0.00,0.00,-15.81,-22.92,46.5477398.00,0.14,-0.01,-10.14,-0.00,0.00,0.00,-15.64,-25.21,44.6777452.00,0.14,-0.00,-10.18,-0.00,0.00,-0.00,-15.64,-25.21,44.6777505.00,0.15,0.02,-10.20,-0.00,-0.00,0.00,-18.63,-24.33,45.8677559.00,0.12,0.04,-10.16,-0.00,-0.00,0.00,-18.63,-24.33,45.8677612.00,0.13,0.02,-10.20,-0.00,-0.00,0.00,-18.63,-24.33,45.8677666.00,0.13,0.01,-10.19,-0.00,0.00,0.00,-17.04,-24.86,45.3577719.00,0.14,0.03,-10.21,-0.00,-0.00,0.00,-17.04,-24.86,45.3577773.00,0.14,0.02,-10.21,-0.00,0.00,0.00,-16.52,-24.68,46.8877826.00,0.13,0.05,-10.18,-0.00,-0.00,0.00,-16.52,-24.68,46.8877880.00,0.14,0.01,-10.20,-0.00,-0.00,0.00,-15.99,-23.09,47.3977933.00,0.13,0.03,-10.18,-0.00,0.00,0.00,-15.99,-23.09,47.3977987.00,0.13,0.01,-10.17,-0.00,-0.00,0.00,-15.99,-24.15,46.0378040.00,0.17,-0.04,-10.19,-0.00,-0.01,0.00,-15.99,-24.15,46.0378094.00,-2.38,0.83,-9.03,-0.33,-0.22,-0.27,-15.99,-24.15,46.0378147.00,-1.36,4.09,-10.39,0.29,-0.16,-4.32,-18.10,-25.21,46.7178201.00,1.77,0.74,-10.24,0.18,-0.02,-4.32,-18.10,-25.21,46.7178255.00,2.84,-2.33,-9.86,0.17,-0.03,-4.32,-30.05,-23.09,46.7178308.00,-0.83,2.11,-10.45,-0.21,-0.00,-2.57,-30.05,-23.09,46.7178362.00,0.24,0.46,-10.08,0.15,0.01,-3.28,-31.63,-17.98,46.8878587.00,0.29,0.12,-10.21,-0.03,-0.00,-0.01,-33.91,-15.69,46.7178641.00,0.44,1.25,-10.40,-0.21,0.05,0.18,-33.03,-16.22,47.2278694.00,0.24,0.20,-10.10,-0.02,-0.00,-0.06,-33.03,-16.22,47.2278748.00,0.14,0.40,-10.22,-0.14,-0.04,-0.03,-33.38,-17.63,46.8878802.00,0.56,0.44,-10.48,0.01,-0.03,0.05,-33.38,-17.63,46.8878855.00,0.15,0.26,-10.11,0.11,-0.03,0.14,-33.38,-17.63,46.8878909.00,0.04,0.91,-10.34,-0.12,-0.05,-0.02,-32.68,-17.28,48.5878962.00,0.13,0.13,-10.15,0.02,-0.01,-0.01,-32.68,-17.28,48.5879016.00,0.14,0.52,-10.24,-0.09,-0.02,0.02,-33.03,-19.75,45.5279070.00,0.06,0.65,-10.25,-0.20,-0.04,0.15,-33.03,-19.75,45.5279123.00,0.19,0.41,-10.42,0.04,-0.14,0.04,-34.09,-17.28,47.2279177.00,-0.07,0.41,-10.15,-0.02,-0.06,0.00,-34.09,-17.28,47.2279231.00,-0.17,0.70,-10.02,-0.04,0.03,-0.30,-34.09,-17.28,47.2279284.00,0.05,0.22,-10.12,-0.06,0.11,-0.11,-33.74,-18.33,47.2279338.00,0.11,0.55,-10.25,-0.02,0.05,-0.01,-33.74,-18.33,47.2279392.00,0.10,0.42,-10.18,0.02,0.03,-0.00,-34.44,-17.63,46.8879445.00,0.10,0.55,-10.20,0.06,0.01,-0.07,-34.44,-17.63,46.8879499.00,0.20,0.37,-10.19,0.07,0.01,-0.07,-33.56,-17.45,48.0779553.00,0.09,0.29,-10.17,0.16,0.02,-0.04,-33.56,-17.45,48.0779800.00,0.21,0.18,-10.15,-0.01,0.02,-0.10,-32.68,-17.98,46.5479855.00,0.09,0.35,-10.14,-0.00,0.01,0.08,-32.68,-17.98,46.5479913.00,0.20,0.19,-10.14,0.01,-0.04,0.00,-32.51,-17.10,45.3579965.00,-0.03,0.78,-10.26,-0.05,0.03,0.35,-32.51,-17.10,45.3580016.00,0.12,0.32,-10.16,0.07,0.06,-0.03,-33.03,-17.63,48.9280068.00,0.31,0.05,-10.16,-0.09,0.05,0.07,-33.03,-17.63,48.9280119.00,-0.00,1.04,-10.26,0.06,0.00,0.40,-35.32,-17.81,46.7180171.00,0.18,0.19,-10.15,0.17,-0.13,-0.45,-35.32,-17.81,46.7180222.00,0.17,0.42,-10.23,-0.07,0.06,0.04,-35.32,-17.81,46.7180274.00,0.31,0.09,-10.31,-0.01,-0.06,0.15,-32.86,-17.81,47.3980325.00,0.19,0.49,-10.27,-0.04,-0.01,-0.02,-32.86,-17.81,47.3980376.00,0.15,0.36,-10.22,-0.04,-0.00,-0.01,-32.15,-17.10,46.7180428.00,0.30,-0.18,-10.22,-0.10,-0.01,0.63,-32.15,-17.10,46.7180479.00,-0.06,0.85,-10.19,0.17,-0.10,1.02,-32.15,-17.10,46.7180531.00,-0.20,-0.19,-9.82,-0.02,-0.16,0.41,-32.86,-19.57,47.3980582.00,-0.10,0.74,-10.23,-0.01,-0.10,0.10,-32.86,-19.57,47.3980634.00,-0.04,0.47,-10.18,0.01,0.00,-0.14,-33.74,-19.39,45.8680827.00,0.13,0.42,-10.31,-0.02,0.08,0.01,-32.51,-19.57,47.3980879.00,0.17,0.21,-10.20,0.03,0.05,0.01,-33.38,-20.80,46.5480930.00,0.18,0.32,-10.19,-0.03,0.07,0.06,-33.38,-20.80,46.5480982.00,0.15,0.32,-10.19,0.03,0.03,-0.68,-33.38,-20.80,46.5481034.00,0.16,0.46,-10.24,0.02,0.02,-0.54,-33.03,-19.75,46.2081085.00,0.27,0.34,-10.28,0.01,-0.03,-0.32,-33.03,-19.75,46.2081137.00,0.17,0.28,-10.20,0.06,-0.00,-0.01,-32.68,-17.98,48.2481188.00,0.10,0.54,-10.26,-0.09,-0.02,-0.01,-32.68,-17.98,48.2481240.00,0.15,0.25,-10.17,-0.10,-0.01,-0.05,-33.21,-18.86,47.7381292.00,0.15,0.36,-10.18,-0.02,-0.02,-0.02,-33.21,-18.86,47.7381343.00,0.01,0.57,-10.17,0.00,0.00,-0.10,-33.21,-18.86,47.7381395.00,0.30,0.16,-10.29,0.02,0.01,-0.31,-32.86,-19.92,47.0581447.00,-0.01,0.31,-10.03,-0.03,-0.12,-0.07,-32.86,-19.92,47.0581498.00,-0.03,-0.11,-9.90,0.13,-0.10,-0.33,-32.86,-19.92,47.0581550.00,-0.04,0.80,-10.41,-0.03,0.04,-0.46,-33.38,-17.98,48.5881602.00,0.54,0.12,-10.46,-0.09,0.23,-0.39,-33.38,-17.98,48.5881653.00,0.12,0.70,-10.23,-0.08,-0.02,-0.10,-32.68,-17.28,46.5481705.00,0.19,-0.02,-10.00,0.07,0.09,-0.05,-32.68,-17.28,46.5481757.00,-0.15,0.96,-10.26,-0.02,-0.03,0.47,-33.03,-17.98,46.8881808.00,0.10,0.52,-10.23,-0.10,-0.03,0.13,-33.03,-17.98,46.8882040.00,0.11,0.42,-10.18,0.10,-0.01,-0.15,-32.15,-18.16,46.0382092.00,-0.21,0.75,-10.34,0.09,0.02,-0.52,-32.15,-18.16,46.0382143.00,0.19,-0.05,-10.07,-0.00,0.01,-0.31,-32.33,-16.57,47.5682195.00,0.25,0.27,-10.15,-0.08,0.03,0.06,-32.33,-16.57,47.5682247.00,0.03,0.65,-10.40,-0.21,-0.13,0.56,-33.91,-16.75,46.3782298.00,-0.08,0.78,-10.16,0.31,-0.04,-0.06,-33.91,-16.75,46.3782350.00,0.11,0.23,-10.24,-0.02,0.01,-0.11,-33.91,-16.75,46.3782402.00,0.48,-0.02,-9.94,-0.16,-0.00,0.03,-33.91,-15.69,47.0582453.00,0.08,0.52,-10.29,-0.08,-0.05,0.00,-33.91,-15.69,47.0582505.00,0.15,0.44,-10.25,-0.01,-0.03,-0.05,-31.80,-18.86,46.3782557.00,0.06,0.65,-10.24,-0.01,0.00,-0.03,-31.80,-18.86,46.3782608.00,0.14,0.37,-10.18,0.02,0.01,-0.08,-31.80,-18.86,46.3782660.00,0.14,0.37,-10.18,0.00,0.00,-0.04,-32.68,-16.92,46.2082712.00,0.12,0.43,-10.19,-0.01,0.00,-0.00,-32.68,-16.92,46.2082763.00,0.13,0.40,-10.20,-0.02,-0.00,0.00,-32.86,-16.75,45.6982815.00,0.12,0.47,-10.20,-0.03,-0.00,0.00,-32.86,-16.75,45.6982867.00,0.13,0.40,-10.19,0.02,0.01,0.00,-34.09,-16.92,46.5482919.00,0.13,0.43,-10.19,-0.00,-0.00,0.00,-34.09,-16.92,46.5482971.00,0.14,0.43,-10.17,0.00,-0.00,0.00,-34.09,-16.92,46.5483192.00,0.12,0.49,-10.22,0.01,0.00,0.00,-34.26,-17.45,45.0183244.00,0.16,0.40,-10.21,0.00,0.00,-0.00,-33.56,-17.10,45.3583296.00,0.15,0.36,-10.19,-0.04,-0.01,0.01,-33.56,-17.10,45.3583348.00,0.06,0.65,-10.30,-0.05,-0.01,0.03,-33.56,-17.10,45.3583399.00,0.10,0.42,-10.22,0.10,0.02,-0.01,-33.21,-17.81,45.0183451.00,0.17,0.37,-10.23,-0.08,-0.01,0.03,-33.21,-17.81,45.0183503.00,0.18,0.29,-10.17,0.09,0.02,0.02,-33.38,-18.33,45.1883555.00,0.12,0.48,-10.20,-0.02,-0.01,0.10,-33.38,-18.33,45.1883607.00,0.16,0.37,-10.17,0.05,-0.00,-0.03,-33.38,-18.33,45.1883658.00,0.15,0.40,-10.20,0.07,0.02,-0.06,-33.03,-17.28,45.8683710.00,0.16,0.35,-10.23,-0.03,-0.01,0.00,-33.03,-17.28,45.8683762.00,0.16,0.35,-10.19,0.02,-0.00,-0.01,-33.91,-15.69,45.3583814.00,0.13,0.37,-10.19,-0.01,-0.00,0.01,-33.91,-15.69,45.3583865.00,0.18,0.31,-10.16,0.07,0.02,-0.00,-33.91,-15.69,45.3583917.00,0.16,0.35,-10.21,-0.00,0.01,0.01,-32.33,-16.22,44.8483969.00,0.15,0.35,-10.19,0.02,0.02,0.01,-32.33,-16.22,44.8484021.00,0.17,0.31,-10.21,0.03,0.02,-0.01,-33.91,-17.81,43.9984073.00,0.19,0.30,-10.19,0.00,0.01,0.00,-33.91,-17.81,43.9984125.00,0.18,0.31,-10.21,-0.01,0.00,0.01,-32.68,-17.63,45.8684347.00,0.06,0.56,-10.46,0.16,0.05,-0.06,-32.15,-15.69,43.6584399.00,0.08,0.14,-9.89,0.23,0.08,-0.31,-31.98,-15.51,42.8084451.00,0.23,0.12,-10.16,-0.14,-0.04,0.04,-31.98,-15.51,42.8084503.00,-0.14,0.50,-10.42,-0.39,0.01,0.48,-32.86,-17.45,44.3384555.00,0.17,0.57,-10.31,0.04,0.00,0.31,-32.86,-17.45,44.3384607.00,0.42,-0.16,-10.08,0.23,0.03,-0.66,-32.86,-17.45,44.33