time,ax,ay,az,gx,gy,gz,mx,my,mz51.00,0.22,0.13,-10.22,-0.00,0.00,0.00,-26.18,-23.09,43.99103.00,0.19,0.14,-10.18,-0.00,0.00,0.00,-26.18,-23.09,43.99154.00,0.22,0.14,-10.20,-0.00,0.00,0.00,-26.36,-23.62,44.16206.00,0.19,0.16,-10.20,-0.00,0.00,0.00,-26.36,-23.62,44.16258.00,0.20,0.15,-10.24,0.00,0.00,0.00,-26.36,-23.62,44.16310.00,0.20,0.14,-10.17,-0.00,-0.00,0.00,-26.36,-22.57,44.84361.00,0.20,0.15,-10.22,-0.00,0.00,0.00,-26.36,-22.57,44.84413.00,0.20,0.15,-10.20,-0.00,0.00,0.00,-27.59,-21.33,43.65465.00,0.20,0.15,-10.21,-0.00,0.00,0.00,-27.59,-21.33,43.65517.00,0.21,0.14,-10.19,-0.00,-0.00,0.00,-27.59,-21.33,43.65569.00,0.19,0.15,-10.21,-0.00,0.00,0.00,-26.36,-23.62,44.16620.00,0.20,0.15,-10.18,-0.00,0.00,0.00,-26.36,-23.62,44.16672.00,0.21,0.14,-10.22,-0.00,0.00,0.00,-27.94,-22.74,44.33724.00,0.28,0.22,-10.38,-0.00,0.00,0.00,-27.94,-22.74,44.33776.00,0.17,0.11,-10.23,0.00,-0.00,0.00,-27.94,-22.74,44.33828.00,0.40,0.30,-10.35,-0.01,0.00,-0.01,-26.71,-23.98,45.52879.00,0.24,0.06,-10.25,0.01,-0.00,0.01,-26.71,-23.98,45.52931.00,0.45,0.45,-10.23,-0.01,0.00,-0.00,-26.88,-22.74,45.01983.00,0.07,-0.18,-10.18,0.01,-0.00,0.01,-26.88,-22.74,45.011035.00,0.33,0.36,-10.19,-0.00,0.00,0.00,-27.06,-23.62,44.841087.00,0.24,0.17,-10.19,-0.01,0.00,0.00,-27.06,-23.62,44.841139.00,0.15,0.17,-10.17,-0.00,0.00,0.00,-27.06,-23.62,44.841190.00,0.28,0.15,-10.20,-0.00,0.00,0.00,-27.24,-22.39,44.671242.00,0.14,0.16,-10.20,-0.00,0.00,0.00,-27.24,-22.39,44.671294.00,0.23,0.11,-10.23,0.00,0.00,0.00,-27.59,-23.45,43.651346.00,0.19,0.19,-10.22,-0.00,0.00,0.00,-27.59,-23.45,43.651398.00,0.22,0.10,-10.19,-0.00,0.00,0.00,-27.59,-23.45,43.651450.00,0.18,0.13,-10.20,-0.00,0.00,0.00,-28.11,-22.57,43.141501.00,0.24,0.15,-10.20,-0.00,0.00,0.00,-28.11,-22.57,43.141553.00,0.18,0.16,-10.23,-0.00,0.00,0.00,-28.29,-22.74,44.671605.00,0.22,0.11,-10.20,-0.00,0.00,0.00,-28.29,-22.74,44.671657.00,0.20,0.15,-10.18,-0.00,0.00,0.00,-28.29,-22.74,44.671709.00,0.24,0.17,-10.21,-0.00,0.00,0.00,-27.24,-22.39,44.331761.00,0.16,0.12,-10.17,-0.00,0.00,0.00,-27.24,-22.39,44.331812.00,0.23,0.14,-10.20,-0.00,0.00,0.00,-26.36,-23.27,44.161864.00,0.16,0.12,-10.22,-0.00,0.00,0.00,-26.36,-23.27,44.161916.00,0.22,0.13,-10.21,-0.00,0.00,0.00,-27.24,-22.74,44.331968.00,0.22,0.16,-10.19,-0.00,0.00,0.00,-27.24,-22.74,44.332020.00,0.19,0.15,-10.21,-0.00,0.00,0.00,-27.24,-22.74,44.332072.00,0.22,0.15,-10.20,-0.00,0.00,0.00,-26.71,-23.27,43.822123.00,0.20,0.15,-10.18,-0.00,0.00,0.00,-26.71,-23.27,43.822175.00,0.22,0.14,-10.22,0.00,0.00,0.00,-26.01,-22.21,43.142227.00,0.19,0.13,-10.19,-0.00,0.00,0.00,-26.01,-22.21,43.142279.00,0.24,0.17,-10.18,-0.00,0.00,0.00,-26.01,-22.21,43.142331.00,0.19,0.14,-10.20,-0.00,0.00,0.00,-26.36,-21.16,43.822383.00,0.23,0.13,-10.18,-0.00,0.00,0.00,-26.36,-21.16,43.822435.00,0.19,0.15,-10.20,-0.00,0.00,0.00,-26.71,-23.27,43.482487.00,0.27,0.15,-10.24,-0.00,0.00,0.00,-26.71,-23.27,43.482538.00,0.06,0.12,-10.20,-0.00,-0.00,0.00,-25.83,-22.74,44.672590.00,0.29,0.06,-10.22,0.00,0.00,0.00,-25.83,-22.74,44.672642.00,0.13,0.16,-10.19,-0.00,0.00,0.00,-25.83,-22.74,44.672694.00,0.22,0.06,-10.20,-0.00,-0.00,0.00,-25.83,-22.39,43.992746.00,0.18,0.20,-10.20,-0.00,0.00,0.00,-25.83,-22.39,43.992798.00,0.20,0.12,-10.22,-0.00,0.00,0.00,-28.11,-22.21,44.502850.00,0.18,0.15,-10.20,-0.00,0.00,0.00,-28.11,-22.21,44.502902.00,0.20,0.15,-10.20,-0.00,0.00,0.00,-28.11,-22.21,44.502954.00,0.19,0.14,-10.21,-0.00,0.00,0.00,-26.71,-23.62,43.823005.00,0.18,0.16,-10.19,-0.00,0.00,0.00,-26.71,-23.62,43.823057.00,0.21,0.14,-10.20,-0.00,0.00,0.00,-27.59,-24.51,44.333109.00,0.20,0.12,-10.18,-0.00,0.00,0.00,-27.59,-24.51,44.333161.00,0.22,0.14,-10.20,-0.00,0.00,0.00,-27.59,-24.51,44.333213.00,0.20,0.14,-10.21,-0.00,0.00,0.00,-27.41,-23.62,44.503265.00,0.22,0.11,-10.19,-0.00,0.00,0.00,-27.41,-23.62,44.503317.00,0.21,0.15,-10.20,-0.00,-0.00,0.00,-28.11,-22.57,43.823369.00,0.20,0.13,-10.20,-0.00,0.00,0.00,-28.11,-22.57,43.823421.00,0.20,0.16,-10.19,-0.00,0.00,0.00,-27.06,-22.57,44.503473.00,0.20,0.13,-10.23,-0.00,0.00,0.00,-27.06,-22.57,44.503525.00,0.21,0.15,-10.16,-0.00,0.00,0.00,-27.06,-22.57,44.503577.00,0.21,0.15,-10.19,-0.00,0.00,0.00,-26.36,-22.92,44.163628.00,0.20,0.15,-10.17,-0.00,0.00,0.00,-26.36,-22.92,44.163680.00,0.22,0.12,-10.21,-0.00,0.00,0.00,-27.94,-21.33,43.993732.00,0.19,0.15,-10.20,-0.00,0.00,0.00,-27.94,-21.33,43.993784.00,0.20,0.13,-10.19,-0.00,0.00,0.00,-27.94,-21.33,43.993836.00,0.20,0.15,-10.21,-0.00,0.00,0.00,-26.36,-22.92,44.503888.00,0.20,0.12,-10.20,-0.00,0.00,0.00,-26.36,-22.92,44.503940.00,0.20,0.15,-10.19,-0.00,0.00,0.00,-27.76,-22.92,43.483992.00,0.21,0.15,-10.19,-0.00,0.00,0.00,-27.76,-22.92,43.484044.00,0.22,0.16,-10.21,-0.00,0.00,0.00,-27.76,-22.92,43.484096.00,0.21,0.13,-10.20,-0.00,0.00,0.00,-26.88,-22.39,43.994148.00,0.19,0.13,-10.18,-0.00,0.00,0.00,-26.88,-22.39,43.994200.00,0.21,0.14,-10.22,-0.00,0.00,0.00,-26.88,-24.51,45.694252.00,0.21,0.15,-10.18,-0.00,0.00,0.00,-26.88,-24.51,45.694305.00,0.20,0.14,-10.22,-0.00,0.00,0.00,-27.76,-22.92,44.504357.00,0.21,0.15,-10.20,-0.00,0.00,0.00,-27.76,-22.92,44.504408.00,0.20,0.14,-10.21,-0.00,0.00,0.00,-27.06,-22.92,45.524460.00,0.21,0.12,-10.20,-0.00,0.00,0.00,-27.06,-22.92,45.524513.00,0.21,0.13,-10.19,-0.00,0.00,0.00,-27.06,-22.92,45.524565.00,0.20,0.14,-10.19,-0.00,0.00,0.00,-27.24,-23.09,47.054617.00,0.21,0.13,-10.19,-0.00,0.00,0.00,-27.24,-23.09,47.054669.00,0.20,0.13,-10.20,-0.00,0.00,0.00,-28.11,-22.21,44.844721.00,0.20,0.13,-10.19,-0.00,0.00,0.00,-28.11,-22.21,44.844773.00,0.23,0.13,-10.19,-0.00,0.00,0.00,-28.11,-22.21,44.844825.00,0.22,0.14,-10.23,-0.00,0.00,0.00,-27.59,-22.39,43.994877.00,0.21,0.13,-10.20,-0.00,0.00,0.00,-27.59,-22.39,43.994929.00,0.22,0.13,-10.21,-0.00,0.00,0.00,-27.94,-22.74,45.354981.00,0.21,0.13,-10.20,-0.00,0.00,0.00,-27.94,-22.74,45.355033.00,0.22,0.14,-10.19,-0.00,-0.00,0.00,-27.94,-22.74,45.355085.00,0.21,0.14,-10.20,-0.00,0.00,0.00,-27.24,-21.68,45.015137.00,0.21,0.14,-10.21,0.00,0.00,0.00,-27.24,-21.68,45.015189.00,0.20,0.13,-10.20,-0.00,0.00,0.00,-26.53,-22.39,45.355241.00,0.20,0.13,-10.18,-0.00,0.00,0.00,-26.53,-22.39,45.355293.00,0.21,0.14,-10.21,-0.00,0.00,0.00,-26.53,-22.39,46.035345.00,0.22,0.13,-10.22,-0.00,0.00,0.00,-26.53,-22.39,46.035397.00,0.19,0.13,-10.19,-0.00,0.00,0.00,-26.53,-22.39,46.035449.00,0.21,0.13,-10.19,-0.00,-0.00,0.00,-26.53,-22.39,46.035501.00,0.22,0.14,-10.20,-0.00,0.00,0.00,-26.53,-22.39,46.035554.00,0.21,0.14,-10.21,-0.00,0.00,0.00,-26.36,-22.92,44.165606.00,0.21,0.15,-10.20,-0.00,0.00,0.00,-26.36,-22.92,44.165658.00,0.20,0.14,-10.20,-0.00,0.00,0.00,-26.36,-22.92,44.165710.00,0.20,0.15,-10.18,-0.00,0.00,0.00,-27.41,-22.57,46.885762.00,0.21,0.15,-10.21,-0.00,0.00,0.00,-27.41,-22.57,46.885814.00,0.19,0.14,-10.21,-0.00,0.00,0.00,-26.36,-23.98,44.505866.00,0.21,0.14,-10.19,-0.00,0.00,0.00,-26.36,-23.98,44.505918.00,0.23,0.13,-10.20,-0.00,-0.00,0.00,-26.36,-23.98,44.505970.00,0.20,0.12,-10.21,-0.00,0.00,0.00,-27.06,-23.62,44.846022.00,0.22,0.15,-10.20,-0.00,0.00,0.00,-27.06,-23.62,44.846074.00,0.21,0.14,-10.19,-0.00,0.00,0.00,-27.94,-22.39,45.696126.00,0.20,0.14,-10.18,-0.00,-0.00,0.00,-27.94,-22.39,45.696179.00,0.21,0.14,-10.21,-0.00,0.00,0.00,-26.88,-22.74,45.016231.00,0.21,0.13,-10.20,-0.00,-0.00,0.00,-26.88,-22.74,45.016283.00,0.22,0.13,-10.22,-0.00,0.00,0.00,-26.88,-22.74,45.016335.00,0.21,0.14,-10.18,-0.00,0.00,0.00,-28.11,-22.57,46.206387.00,0.21,0.14,-10.19,-0.00,0.00,0.00,-28.11,-22.57,46.206439.00,0.21,0.13,-10.21,-0.00,0.00,0.00,-26.01,-22.21,45.866491.00,0.20,0.13,-10.22,-0.00,0.00,0.00,-26.01,-22.21,45.866543.00,0.21,0.13,-10.20,-0.00,0.00,0.00,-26.01,-22.21,45.866596.00,0.21,0.13,-10.20,-0.00,0.00,0.00,-26.88,-22.39,45.696648.00,0.21,0.13,-10.18,-0.00,-0.00,0.00,-26.88,-22.39,45.696700.00,0.22,0.16,-10.22,-0.00,0.00,0.00,-27.06,-22.21,46.546752.00,0.20,0.13,-10.18,-0.00,0.00,0.00,-27.06,-22.21,46.546804.00,0.20,0.14,-10.22,-0.00,0.00,0.00,-27.06,-22.92,44.846856.00,0.21,0.13,-10.21,-0.00,0.00,0.00,-27.06,-22.92,44.846909.00,0.21,0.15,-10.19,-0.00,0.00,0.00,-27.06,-22.92,44.846961.00,0.20,0.14,-10.21,-0.00,0.00,0.00,-26.88,-23.45,45.357013.00,0.21,0.14,-10.19,-0.00,0.00,0.00,-26.88,-23.45,45.357065.00,0.20,0.13,-10.21,0.00,0.00,0.00,-26.71,-23.27,45.867117.00,0.19,0.14,-10.20,-0.00,0.00,0.00,-26.71,-23.27,45.867169.00,0.21,0.14,-10.21,-0.00,-0.00,0.00,-26.71,-23.27,45.867222.00,0.21,0.14,-10.20,-0.00,0.00,0.00,-27.06,-22.92,45.527274.00,0.21,0.14,-10.19,-0.00,0.00,0.00,-27.06,-22.92,45.527326.00,0.21,0.14,-10.21,-0.00,0.00,0.00,-27.06,-24.33,44.167378.00,0.22,0.15,-10.19,-0.00,0.00,0.00,-27.06,-24.33,44.167431.00,0.20,0.14,-10.22,-0.00,0.00,0.00,-27.24,-22.74,44.167483.00,-0.28,0.43,-10.01,-0.04,0.02,-0.12,-27.24,-22.74,46.377535.00,1.61,-0.70,-12.04,0.12,-0.24,0.77,-27.24,-22.74,46.377587.00,0.00,0.61,-10.43,0.01,0.16,1.37,-28.29,-21.33,45.357640.00,-0.16,0.20,-10.18,-0.02,0.05,1.10,-28.29,-21.33,45.357692.00,-0.01,0.43,-10.29,-0.10,0.07,0.64,-24.95,-23.98,45.527744.00,0.22,0.12,-10.24,0.00,0.00,0.15,-24.95,-23.98,45.527796.00,-0.15,0.14,-10.24,0.02,-0.01,0.07,-25.13,-23.09,45.017848.00,0.05,0.65,-10.45,-0.11,0.07,0.05,-25.13,-23.09,45.017901.00,0.80,-0.09,-10.20,0.01,0.09,0.27,-25.13,-23.09,45.017953.00,0.35,-0.08,-10.13,-0.04,-0.03,0.81,-25.48,-24.86,45.018005.00,0.31,-0.03,-10.17,-0.01,0.01,1.09,-25.48,-24.86,45.018057.00,0.11,0.14,-10.20,0.00,0.11,1.31,-21.44,-24.33,45.528110.00,0.26,0.11,-10.22,-0.05,0.10,1.24,-21.44,-24.33,45.528162.00,0.39,0.13,-10.25,-0.03,0.04,1.32,-21.44,-24.33,45.528214.00,-0.05,0.16,-10.24,-0.01,0.05,1.09,-20.73,-23.98,44.848266.00,1.48,0.00,-9.90,-0.03,0.27,1.10,-20.73,-23.98,44.848319.00,-0.18,-0.19,-10.24,0.02,0.19,0.99,-18.10,-23.80,44.338371.00,0.69,-0.05,-10.13,-0.05,0.16,1.12,-18.10,-23.80,44.338423.00,1.73,-0.21,-14.88,0.47,0.06,0.93,-18.10,-23.80,44.338475.00,0.57,-0.24,-10.01,-0.11,0.11,1.09,-14.94,-21.33,46.378528.00,0.59,-0.38,-10.18,0.06,0.06,0.61,-14.94,-21.33,46.378580.00,0.39,-0.60,-10.07,0.02,0.03,0.37,-13.88,-20.63,45.018632.00,0.19,0.26,-10.91,0.20,0.13,0.02,-13.88,-20.63,45.018684.00,0.81,-0.91,-10.20,0.69,0.51,-0.19,-13.00,-20.10,45.188737.00,1.66,-2.21,-14.78,1.36,-0.16,0.11,-13.00,-20.10,45.188789.00,1.29,-1.64,-11.88,1.03,-1.72,0.70,-13.00,-20.10,45.188841.00,-1.63,-3.42,-11.53,1.47,-2.48,0.22,-17.40,-13.22,46.378893.00,-2.20,-1.32,-12.03,1.07,-2.72,0.81,-17.40,-13.22,46.378946.00,-2.43,-3.33,-11.70,-0.32,-2.57,0.48,-32.15,-10.40,45.018998.00,-5.18,-0.30,-10.68,-1.12,-3.06,0.40,-32.15,-10.40,45.019050.00,-5.95,-0.05,-15.19,-0.11,-3.33,-0.25,-32.15,-10.40,45.019103.00,-6.30,-3.61,-9.69,0.53,-4.05,-0.48,-48.32,-16.75,37.549155.00,-4.34,-2.78,-1.42,-1.05,-4.35,1.17,-48.32,-16.75,37.549207.00,-3.11,0.05,3.80,-1.20,-3.55,0.95,-61.32,-24.15,19.199259.00,-1.06,-0.62,12.62,-1.92,-1.56,0.04,-61.32,-24.15,19.199312.00,2.00,-1.92,18.14,-2.64,1.22,0.14,-61.32,-24.15,19.199364.00,7.31,5.09,4.75,-2.12,4.37,1.15,-62.90,-27.15,9.519416.00,8.76,-2.42,-13.78,0.63,4.37,-1.16,-62.90,-27.15,9.519469.00,4.70,-3.57,-26.01,-0.27,4.37,-0.51,-42.70,-25.92,40.599521.00,3.52,1.86,-39.23,-0.27,3.26,0.46,-42.70,-25.92,40.599573.00,5.56,-0.07,-24.29,2.98,-4.35,-1.08,-22.67,-22.39,47.059625.00,5.46,-0.83,-5.25,1.83,-4.35,-1.09,-22.67,-22.39,47.059678.00,0.95,-0.50,4.57,-0.22,-4.35,-1.33,-62.38,-13.93,18.859730.00,-2.45,-1.64,6.10,-0.91,-4.35,-1.55,-62.38,-13.93,18.859782.00,-3.92,-1.60,3.48,0.58,-2.10,-2.27,-62.38,-13.93,18.859835.00,-5.43,-3.47,1.45,3.13,-1.18,-3.29,-64.31,-3.17,-2.049887.00,-4.03,-4.57,1.55,2.87,-1.99,-3.38,-64.31,-3.17,-2.049939.00,-1.90,-10.45,8.81,4.35,-2.58,-2.48,-50.96,8.11,-21.069992.00,-3.29,-8.04,10.09,2.62,-1.13,-0.16,-50.96,8.11,-21.0610044.00,-4.36,-3.63,10.47,4.35,0.56,-0.45,-50.96,8.11,-21.0610096.00,-3.88,-2.93,6.11,0.60,1.23,-1.45,-49.20,-3.53,-29.5510149.00,-3.49,-4.58,9.38,4.35,0.20,-1.56,-49.20,-3.53,-29.5510201.00,-3.46,-1.55,6.12,0.44,0.16,-1.27,-49.73,-6.88,-28.0310253.00,-3.10,-4.46,7.97,2.45,-0.15,0.33,-49.73,-6.88,-28.0310306.00,-4.61,0.68,8.96,2.56,-0.09,1.38,-49.73,-6.88,-28.0310359.00,-5.55,-0.18,9.39,1.54,0.35,0.41,-50.60,-16.22,-29.5510414.00,-5.46,1.73,8.28,0.37,0.36,0.37,-50.60,-16.22,-29.5510465.00,-4.97,1.70,8.24,0.78,-0.04,-0.15,-51.83,-24.51,-28.3710516.00,-3.93,1.85,9.50,0.63,0.26,-0.87,-51.83,-24.51,-28.3710566.00,-4.04,2.70,9.15,-0.78,0.45,-1.58,-53.24,-22.39,-26.6710617.00,-3.40,-2.31,9.74,0.71,0.45,-1.69,-53.24,-22.39,-26.6710668.00,-6.36,0.94,10.17,3.36,0.89,-0.08,-53.24,-22.39,-26.6710719.00,-5.48,2.12,7.21,0.95,0.46,0.20,-56.58,-22.21,-22.4210770.00,-6.45,3.16,7.05,0.06,0.94,0.20,-56.58,-22.21,-22.4210820.00,-7.19,2.40,5.76,0.18,0.87,-0.18,-59.04,-25.03,-18.6810871.00,-7.13,2.99,6.55,-0.07,0.23,-0.47,-59.04,-25.03,-18.6810922.00,-7.28,1.65,5.61,0.33,0.07,-0.07,-59.04,-25.03,-18.6810973.00,-6.54,3.72,6.86,-0.07,-0.69,0.07,-59.74,-22.92,-17.3211024.00,-7.38,1.54,9.46,-0.15,0.08,-0.29,-59.74,-22.92,-17.3211074.00,-6.87,3.49,7.19,-0.22,0.11,0.15,-60.97,-23.09,-17.8311125.00,-6.08,1.82,6.87,-0.16,-0.01,0.12,-60.97,-23.09,-17.8311176.00,-5.82,4.03,6.57,1.05,0.33,0.38,-60.97,-23.09,-17.8311227.00,-6.07,1.93,6.31,0.26,0.46,-0.05,-58.34,-26.44,-16.6511278.00,-6.12,3.38,4.96,1.33,0.79,0.53,-58.34,-26.44,-16.6511329.00,-7.65,4.33,4.76,1.85,0.17,0.08,-60.09,-28.56,-12.9111380.00,-7.36,3.93,3.40,0.07,-0.06,0.21,-60.09,-28.56,-12.9111430.00,-6.67,5.38,6.96,-0.79,-0.53,-0.24,-60.09,-28.56,-12.9111481.00,-7.40,4.21,5.99,-0.12,0.49,-0.34,-61.15,-27.85,-12.5711532.00,-6.74,3.51,5.23,-0.56,0.03,-0.28,-61.15,-27.85,-12.5711583.00,-6.69,3.12,6.98,-0.67,0.07,-0.29,-60.27,-26.62,-13.4211634.00,-7.51,3.69,7.36,-0.39,0.13,-0.14,-60.27,-26.62,-13.4211685.00,-6.37,3.98,7.11,0.12,0.03,0.22,-60.27,-26.62,-13.4211736.00,-6.88,2.16,5.00,0.20,0.54,-0.38,-61.15,-24.68,-13.9311787.00,-8.01,2.94,5.48,-0.07,0.70,-0.41,-61.15,-24.68,-13.9311838.00,-9.42,2.87,2.94,-0.15,1.15,-0.34,-62.38,-23.09,-10.0211888.00,-7.84,1.69,5.55,-0.47,-0.15,-0.11,-62.38,-23.09,-10.0211939.00,-7.02,2.51,5.73,-0.15,0.18,-0.27,-63.26,-20.10,-7.4711990.00,-8.70,2.48,5.18,0.16,0.56,0.14,-63.26,-20.10,-7.4712041.00,-8.78,2.00,3.96,0.14,0.37,-0.10,-63.26,-20.10,-7.4712092.00,-8.78,2.55,4.14,-0.12,0.02,0.04,-65.19,-20.63,-4.9312143.00,-8.09,2.60,4.86,-0.04,0.01,0.24,-65.19,-20.63,-4.9312194.00,-8.21,2.56,4.66,-0.19,0.09,0.19,-65.19,-20.63,-4.9312245.00,-8.16,2.51,4.97,-0.10,0.27,0.10,-64.31,-22.92,-5.4412296.00,-8.41,2.02,4.45,-0.07,0.06,-0.08,-64.31,-22.92,-5.4412347.00,-8.80,3.79,3.43,0.03,0.10,-0.42,-63.96,-22.57,-5.7712398.00,-7.99,2.78,2.05,-0.30,-0.07,-0.43,-63.96,-22.57,-5.7712449.00,-8.13,1.07,4.41,-0.01,-0.19,-0.07,-63.43,-18.51,-3.9112500.00,-7.65,2.24,5.64,-0.20,-0.59,0.06,-63.43,-18.51,-3.9112551.00,-7.44,2.35,6.27,0.00,-0.07,-0.11,-63.43,-18.51,-3.9112602.00,-8.50,1.85,3.04,-0.05,0.40,-0.01,-63.61,-20.45,-6.1112653.00,-8.10,3.11,1.27,-0.63,0.55,-0.05,-63.61,-20.45,-6.1112704.00,-8.06,0.97,4.36,0.04,-0.20,-0.18,-63.61,-19.39,-4.4212755.00,-9.48,1.91,3.71,-0.13,-0.55,0.43,-63.61,-19.39,-4.4212806.00,-7.48,2.20,6.64,-0.18,-0.57,0.66,-63.61,-19.39,-4.4212857.00,-7.45,1.47,5.92,-0.14,0.30,0.19,-63.26,-21.16,-8.1512908.00,-10.05,2.38,2.66,0.36,0.80,-0.06,-63.26,-21.16,-8.1512959.00,-8.84,2.43,3.96,-0.49,0.20,0.07,-64.13,-22.04,-5.2713010.00,-8.81,2.13,6.00,-0.44,-0.15,0.09,-64.13,-22.04,-5.2713061.00,-6.68,1.56,6.36,-0.07,-0.30,-0.76,-64.13,-22.04,-5.2713112.00,-7.13,1.26,6.50,0.24,0.38,-0.90,-64.13,-19.57,-6.6213163.00,-9.15,2.51,3.49,-0.17,0.22,0.05,-64.13,-19.57,-6.6213214.00,-8.22,0.28,5.21,0.15,0.21,0.09,-64.84,-18.16,-3.9113265.00,-8.14,1.41,5.26,-0.73,-0.25,0.80,-64.84,-18.16,-3.9113316.00,-8.92,2.28,5.08,-0.17,-0.06,0.37,-64.84,-18.16,-3.9113367.00,-8.84,0.58,5.30,0.57,0.11,-0.73,-64.49,-20.63,-6.2813418.00,-8.31,1.63,3.72,0.09,0.40,-0.42,-64.49,-20.63,-6.2813469.00,-8.04,-0.12,3.87,0.11,0.23,-0.15,-64.66,-17.63,-5.1013521.00,-9.20,3.25,3.14,-0.43,-0.63,0.78,-64.66,-17.63,-5.1013572.00,-7.25,0.65,4.74,-0.27,0.05,0.08,-64.66,-17.63,-5.1013623.00,-7.15,1.60,4.56,-0.32,-0.09,-0.10,-64.49,-20.27,-5.6113674.00,-8.34,1.16,8.97,-0.16,-0.61,0.00,-64.49,-20.27,-5.6113725.00,-8.00,2.56,5.31,0.26,-0.01,0.04,-63.61,-19.39,-6.7913776.00,-9.05,1.71,3.81,0.09,0.25,-0.09,-63.61,-19.39,-6.7913827.00,-8.64,0.95,4.38,0.23,0.08,-0.18,-64.13,-19.92,-5.9413878.00,-7.99,1.25,4.44,-0.11,0.04,0.27,-64.13,-19.92,-5.9413929.00,-8.43,2.51,4.63,-0.18,-0.08,0.52,-64.13,-19.92,-5.9413980.00,-8.45,1.76,4.86,0.11,-0.08,-0.23,-62.90,-21.51,-5.4414031.00,-7.42,3.19,4.41,0.18,-0.06,-0.77,-62.90,-21.51,-5.4414082.00,-7.89,-1.47,3.67,0.44,0.32,-1.25,-63.43,-16.75,-5.2714133.00,-8.52,2.60,3.41,-0.26,0.12,0.22,-63.43,-16.75,-5.2714184.00,-7.87,0.52,5.54,-0.17,-0.21,1.01,-63.43,-16.75,-5.2714236.00,-8.96,3.31,4.94,-0.02,-0.12,0.61,-63.08,-17.45,-5.9414287.00,-9.05,2.10,4.75,-0.45,-0.11,-0.02,-63.08,-17.45,-5.9414338.00,-8.08,0.91,5.63,-0.24,0.17,0.31,-64.31,-17.98,-6.4514389.00,-8.50,1.90,4.59,-0.03,0.09,0.03,-64.31,-17.98,-6.4514440.00,-8.53,1.31,4.68,-0.05,0.03,-0.15,-63.61,-19.75,-5.1014491.00,-8.08,1.25,4.18,-0.01,0.11,0.08,-63.61,-19.75,-5.1014542.00,-8.23,1.15,4.76,-0.09,-0.05,0.35,-63.61,-19.75,-5.1014593.00,-8.27,1.97,4.45,-0.10,-0.17,0.06,-64.13,-18.86,-5.2714644.00,-9.14,3.64,4.39,-0.39,-0.27,-0.15,-64.13,-18.86,-5.2714695.00,-8.11,0.84,4.73,0.21,0.24,-0.43,-64.13,-18.86,-5.2714747.00,-8.21,1.28,3.91,-0.36,0.15,0.34,-66.07,-19.04,-4.7614798.00,-8.49,0.70,4.28,0.04,0.09,0.02,-66.07,-19.04,-4.7614849.00,-8.45,1.57,4.34,-0.16,0.06,-0.25,-63.43,-17.45,-4.5914900.00,-8.40,1.34,4.59,-0.22,0.11,0.23,-63.43,-17.45,-4.5914951.00,-8.59,1.03,4.25,-0.04,0.15,0.17,-64.49,-16.75,-4.5915002.00,-8.84,1.86,3.84,-0.13,0.06,-0.21,-64.49,-16.75,-4.5915053.00,-8.08,1.90,4.26,-0.27,0.05,-0.08,-64.49,-16.75,-4.5915104.00,-8.66,1.60,4.20,-0.21,-0.03,0.46,-63.43,-17.45,-3.5715156.00,-8.47,2.01,3.01,-0.31,-0.05,0.40,-63.43,-17.45,-3.5715207.00,-8.77,1.17,5.00,0.12,-0.04,0.04,-65.54,-19.92,-3.5715258.00,-8.96,0.87,5.51,0.12,0.15,-0.52,-65.54,-19.92,-3.5715309.00,-8.61,1.51,3.68,-0.21,0.20,-0.16,-65.54,-19.92,-3.5715360.00,-8.40,0.16,4.28,0.08,-0.13,0.16,-63.08,-16.40,-3.5715411.00,-8.29,1.11,4.48,-0.22,-0.56,0.26,-63.08,-16.40,-3.5715463.00,-7.76,0.84,6.18,-0.05,0.14,-0.04,-62.73,-17.45,-4.9315514.00,-8.81,1.03,3.22,-0.01,0.45,0.03,-62.73,-17.45,-4.9315565.00,-8.56,1.05,4.03,0.12,-0.04,-0.19,-62.73,-17.45,-4.9315616.00,-9.63,0.94,3.40,0.01,-0.37,0.26,-63.08,-18.51,-3.2315667.00,-7.62,1.26,5.70,-0.06,-0.83,0.26,-63.08,-18.51,-3.2315719.00,-7.30,1.40,6.55,0.06,-0.33,0.14,-63.08,-20.27,-6.6215770.00,-8.33,1.82,5.22,0.12,0.56,0.05,-63.08,-20.27,-6.6215821.00,-8.48,1.93,3.28,-0.39,0.15,0.05,-64.31,-20.10,-4.7615872.00,-8.53,1.43,3.99,0.11,-0.03,-0.10,-64.31,-20.10,-4.7615923.00,-9.44,1.48,5.35,0.06,-1.30,0.26,-64.31,-20.10,-4.7615974.00,-7.73,1.69,2.51,0.09,0.70,0.17,-62.03,-18.86,-7.6416026.00,-5.26,-0.09,7.41,-0.35,-0.04,-0.59,-62.03,-18.86,-7.6416077.00,-9.49,0.59,7.51,-0.11,0.37,-0.24,-62.03,-18.86,-7.6416128.00,-8.36,1.10,4.84,0.05,0.45,0.09,-64.66,-18.69,-6.7916179.00,-8.41,1.53,3.83,-0.12,0.03,0.37,-64.66,-18.69,-6.7916230.00,-7.82,1.47,5.01,-0.10,-0.06,0.15,-65.01,-20.80,-3.7416282.00,-8.32,0.83,5.09,0.03,0.05,-0.23,-65.01,-20.80,-3.7416333.00,-8.33,1.24,4.77,0.06,0.18,-0.17,-64.31,-18.69,-4.7616384.00,-8.56,0.48,3.19,0.22,0.23,-0.15,-64.31,-18.69,-4.7616435.00,-8.99,0.72,3.96,0.03,0.12,0.16,-64.31,-18.69,-4.7616487.00,-8.34,1.42,4.57,-0.29,-0.07,0.82,-64.31,-19.75,-3.4016538.00,-9.09,1.91,5.48,-0.20,-0.07,0.19,-64.31,-19.75,-3.4016589.00,-9.38,2.14,4.88,-0.12,-0.04,-0.54,-63.78,-20.27,-2.2116640.00,-8.60,0.76,4.66,0.14,0.18,-0.48,-63.78,-20.27,-2.2116692.00,-8.31,-0.58,3.61,-0.04,-0.08,0.24,-63.78,-20.27,-2.2116743.00,-6.69,1.86,7.02,-0.44,-0.42,0.69,-65.19,-19.92,-3.9116794.00,-9.33,0.41,4.95,0.26,0.48,-0.36,-65.19,-19.92,-3.9116845.00,-8.53,1.68,3.80,-0.20,0.14,0.26,-65.01,-19.04,-5.7716897.00,-8.22,1.79,4.97,-0.12,0.07,0.19,-65.01,-19.04,-5.7716948.00,-8.66,1.10,4.24,-0.21,0.05,-0.08,-65.01,-19.04,-5.7716999.00,-8.78,0.90,4.65,0.06,0.07,0.08,-63.43,-19.22,-2.5517051.00,-8.87,2.34,5.42,-0.29,-0.06,-0.41,-63.43,-19.22,-2.5517102.00,-8.55,1.09,4.09,-0.09,0.18,-0.13,-63.96,-17.98,-2.3817153.00,-8.45,0.53,4.59,-0.04,0.15,0.08,-63.96,-17.98,-2.3817205.00,-8.69,0.59,4.79,-0.33,-0.04,0.55,-64.49,-21.33,-2.2117256.00,-8.83,0.93,4.28,0.03,-0.00,0.14,-64.49,-21.33,-2.2117307.00,-9.17,1.74,4.11,-0.08,0.05,-0.50,-64.49,-21.33,-2.2117359.00,-8.35,0.68,4.46,-0.27,0.14,-0.25,-64.13,-18.86,-2.5517410.00,-8.67,0.73,4.11,-0.27,0.14,0.46,-64.13,-18.86,-2.5517461.00,-8.86,1.56,3.93,0.03,0.14,-0.03,-63.26,-20.45,-1.3617513.00,-8.42,1.36,4.06,0.08,-0.07,-0.62,-63.26,-20.45,-1.3617564.00,-10.38,0.18,3.67,0.40,-0.49,0.44,-63.26,-20.45,-1.3617615.00,-6.23,0.91,5.55,0.14,-1.02,1.05,-65.72,-18.69,-3.0617666.00,-15.70,1.20,4.48,-0.28,0.64,-0.13,-65.72,-18.69,-3.0617718.00,-8.84,1.48,2.36,-0.41,0.32,0.01,-63.96,-21.16,-3.7417769.00,-9.26,-1.45,3.12,0.24,0.06,-0.52,-63.96,-21.16,-3.7417821.00,-9.35,2.31,4.83,-0.30,-0.90,0.35,-63.96,-21.16,-3.7417872.00,-6.36,1.30,4.83,-0.08,0.09,-0.40,-64.49,-20.63,-4.2517923.00,-9.09,-0.80,8.09,0.13,-0.29,-0.17,-64.49,-20.63,-4.2517975.00,-6.92,1.25,4.83,0.59,-0.02,0.28,-64.84,-18.86,-4.9318026.00,-9.63,0.97,2.95,0.21,0.27,0.26,-64.84,-18.86,-4.9318077.00,-7.75,0.92,5.18,0.04,-0.09,0.58,-64.84,-18.86,-4.9318129.00,-8.64,1.58,4.18,0.08,0.19,-0.06,-63.61,-20.10,-4.0818180.00,-8.88,2.04,4.03,0.19,0.09,-0.54,-63.61,-20.10,-4.0818231.00,-8.27,0.53,5.29,-0.04,-0.07,-0.16,-65.01,-19.75,-3.4018283.00,-8.78,0.81,4.29,0.15,0.19,0.08,-65.01,-19.75,-3.4018334.00,-8.16,1.01,5.04,0.12,0.09,-0.27,-65.01,-19.75,-3.4018386.00,-8.45,0.98,4.72,0.47,-0.11,-0.14,-63.78,-19.57,-2.2118437.00,-9.03,1.22,3.77,0.01,-0.03,0.17,-63.78,-19.57,-2.2118488.00,-8.67,0.07,5.25,-0.31,0.12,-0.02,-66.07,-19.39,-3.7418540.00,-8.52,1.36,4.36,-0.36,0.24,0.10,-66.07,-19.39,-3.7418591.00,-8.62,0.84,4.47,-0.16,0.07,0.41,-65.01,-20.10,-2.0418642.00,-8.79,1.02,4.54,0.01,-0.06,0.11,-65.01,-20.10,-2.0418694.00,-9.26,1.65,4.81,0.04,-0.04,-0.33,-65.01,-20.10,-2.0418745.00,-8.78,0.95,4.39,-0.11,0.13,-0.25,-64.49,-18.86,-2.8918797.00,-8.24,0.55,4.50,-0.41,0.13,0.27,-64.49,-18.86,-2.8918848.00,-8.69,0.45,4.21,-0.08,0.11,0.03,-64.13,-21.33,-3.2318899.00,-9.07,1.45,3.80,-0.06,0.06,-0.11,-64.13,-21.33,-3.2318951.00,-8.44,1.12,3.88,-0.04,0.06,-0.01,-64.13,-21.33,-3.2319002.00,-8.67,0.49,4.66,-0.07,0.04,0.30,-65.01,-19.04,-1.7019054.00,-8.59,1.18,4.57,-0.18,-0.07,0.23,-65.01,-19.04,-1.7019105.00,-9.06,2.06,3.48,-0.15,-0.13,-0.07,-65.54,-20.27,-0.8519157.00,-8.77,0.25,4.26,0.14,0.04,-0.43,-65.54,-20.27,-0.8519208.00,-8.48,0.98,3.80,0.11,0.19,-0.14,-63.96,-19.04,-2.3819259.00,-8.51,0.43,4.22,-0.14,0.11,0.22,-63.96,-19.04,-2.3819311.00,-8.84,0.74,4.37,-0.19,0.06,0.16,-63.96,-19.04,-2.3819362.00,-9.39,1.24,3.94,-0.09,0.04,-0.05,-64.84,-19.22,-0.8519414.00,-8.58,0.38,4.73,0.01,0.09,-0.38,-64.84,-19.22,-0.8519465.00,-8.69,0.88,3.74,-0.21,0.11,0.16,-65.01,-20.10,-1.0219517.00,-8.50,-0.13,3.78,-0.24,0.08,0.37,-65.01,-20.10,-1.0219568.00,-8.97,1.16,4.16,0.09,0.00,-0.06,-65.01,-20.10,-1.0219620.00,-8.84,0.01,4.03,0.15,0.12,-0.50,-65.72,-21.16,-1.3619671.00,-8.26,-0.27,4.18,-0.18,0.08,-0.03,-65.72,-21.16,-1.3619723.00,-8.83,0.96,3.61,-0.39,-0.04,0.43,-64.13,-20.98,-1.5319774.00,-9.38,1.60,3.05,-0.10,-0.01,-0.18,-64.13,-20.98,-1.5319826.00,-8.40,-0.37,3.78,-0.33,0.05,-0.21,-64.13,-20.98,-1.5319877.00,-9.81,-0.87,3.62,0.12,-0.05,0.54,-64.31,-18.33,-1.3619928.00,-7.92,-0.74,4.72,0.18,-1.33,1.29,-64.31,-18.33,-1.3619980.00,-7.31,2.32,5.61,0.60,-1.40,1.83,-63.96,-25.03,-6.1120032.00,-4.47,-1.86,3.94,-0.45,-1.28,1.57,-63.96,-25.03,-6.1120083.00,-6.85,7.84,8.85,1.95,-1.67,2.19,-63.96,-25.03,-6.1120135.00,-7.26,10.04,6.48,0.87,-0.87,-0.35,-57.28,-37.02,-12.9120186.00,-6.80,3.77,6.31,0.41,-0.07,-2.08,-57.28,-37.02,-12.9120238.00,-6.58,2.90,7.08,0.22,0.37,-1.97,-59.21,-30.50,-13.7620289.00,-6.87,2.26,5.27,-0.23,0.62,-0.95,-59.21,-30.50,-13.7620340.00,-7.92,1.91,6.63,0.10,0.36,-1.01,-59.21,-30.50,-13.7620392.00,-7.55,2.70,5.50,-0.10,0.20,-0.10,-61.67,-25.21,-10.3620443.00,-8.19,0.78,4.23,0.19,0.59,-0.50,-61.67,-25.21,-10.3620495.00,-7.83,2.20,5.02,-0.09,-0.02,-0.03,-62.90,-23.27,-8.4920546.00,-7.63,1.95,6.33,0.17,0.22,-0.02,-62.90,-23.27,-8.4920598.00,-9.14,1.67,3.74,0.26,0.46,-0.04,-64.13,-23.80,-6.9620650.00,-8.67,2.17,4.87,-0.34,0.19,0.08,-64.13,-23.80,-6.9620701.00,-7.67,2.72,3.75,-0.16,0.18,0.08,-64.13,-23.80,-6.9620753.00,-7.84,1.69,5.52,0.14,-0.26,0.09,-62.73,-23.45,-7.6420805.00,-8.84,1.60,4.93,0.09,0.21,-0.07,-62.73,-23.45,-7.6420856.00,-9.35,2.49,5.20,0.17,0.18,-0.25,-62.73,-22.39,-5.9420908.00,-7.33,1.34,3.77,0.21,0.15,-1.17,-62.73,-22.39,-5.9420959.00,-6.91,0.47,6.34,-0.16,0.00,-0.49,-62.73,-22.39,-5.9421011.00,-9.27,1.23,4.00,-0.48,-0.24,0.27,-63.96,-18.69,-6.7921062.00,-9.72,2.33,4.19,-0.37,-0.18,0.68,-63.96,-18.69,-6.7921114.00,-7.29,1.60,6.69,-0.31,0.00,0.05,-63.96,-20.45,-7.1321165.00,-12.61,0.44,4.78,0.14,0.64,-0.22,-63.96,-20.45,-7.1321217.00,-8.34,1.52,3.59,-0.12,0.21,0.00,-63.96,-20.45,-7.1321268.00,-7.88,1.07,5.70,-0.15,-0.01,0.30,-63.61,-19.75,-5.7721320.00,-8.52,1.33,5.58,0.06,-0.05,0.19,-63.61,-19.75,-5.7721371.00,-8.43,1.14,5.31,-0.04,-0.02,-0.51,-63.43,-21.33,-6.2821423.00,-8.18,1.43,4.73,-0.11,0.21,-0.21,-63.43,-21.33,-6.2821474.00,-8.38,0.10,4.12,-0.05,0.13,0.07,-64.13,-19.57,-4.9321526.00,-8.39,1.81,4.20,-0.34,-1.10,0.01,-64.13,-19.57,-4.9321577.00,-7.20,1.53,6.27,-0.46,-0.48,0.06,-64.13,-19.57,-4.9321629.00,-7.32,-0.71,6.05,-0.13,-0.10,-0.09,-63.78,-18.86,-10.3621680.00,-7.27,0.05,5.91,0.39,0.30,0.20,-63.78,-18.86,-10.3621732.00,-7.57,2.06,7.13,0.42,-0.42,0.67,-62.73,-21.33,-9.3421783.00,-7.99,2.31,5.54,0.07,0.01,0.36,-62.73,-21.33,-9.3421835.00,-8.18,1.83,4.92,0.03,0.12,0.12,-62.73,-21.33,-9.3421887.00,-7.55,1.35,5.55,0.03,0.26,0.05,-62.90,-23.98,-8.1521938.00,-7.99,2.27,5.26,-0.09,0.15,0.23,-62.90,-23.98,-8.1521990.00,-8.36,1.79,4.92,0.11,0.01,0.09,-62.73,-23.09,-6.6222041.00,-8.83,2.31,5.47,-0.16,-0.08,-0.21,-62.73,-23.09,-6.6222093.00,-7.53,1.08,5.49,0.11,0.11,-0.49,-62.73,-23.80,-6.9622145.00,-7.71,1.59,6.64,-0.02,-0.04,-0.36,-62.73,-23.80,-6.9622196.00,-8.73,1.82,4.62,-0.42,0.06,0.25,-62.73,-23.80,-6.9622248.00,-8.15,1.71,5.82,-0.11,0.08,0.28,-62.38,-22.39,-7.9822299.00,-8.43,1.58,5.20,-0.18,0.03,-0.12,-62.38,-22.39,-7.9822351.00,-7.88,0.70,5.02,-0.02,0.10,-0.45,-62.90,-20.80,-7.8122403.00,-7.60,1.16,5.23,-0.02,0.12,0.11,-62.90,-20.80,-7.8122454.00,-8.38,1.47,4.48,-0.10,0.03,0.31,-62.90,-20.80,-7.8122506.00,-8.46,3.39,5.53,-0.09,-0.03,-0.15,-63.26,-21.86,-6.4522558.00,-7.99,2.13,4.74,-0.16,0.06,-0.24,-63.26,-21.86,-6.4522609.00,-7.83,0.73,5.71,-0.12,0.05,0.10,-62.90,-21.51,-6.4522661.00,-8.62,1.72,4.90,-0.02,0.03,0.45,-62.90,-21.51,-6.4522712.00,-8.70,1.89,4.79,0.05,0.00,-0.17,-62.90,-21.51,-6.4522764.00,-7.81,0.36,4.85,-0.08,0.12,-0.37,-62.90,-21.16,-5.7722816.00,-8.25,1.44,4.90,-0.13,0.13,0.31,-62.90,-21.16,-5.7722867.00,-8.61,1.14,4.80,0.12,0.10,0.09,-64.31,-22.57,-5.7722919.00,-8.11,1.85,5.20,0.04,-0.03,-0.27,-64.31,-22.57,-5.7722971.00,-8.07,0.79,4.27,0.06,-0.15,-0.09,-63.43,-22.39,-6.2823022.00,-8.95,1.78,3.48,0.14,-0.66,0.42,-63.43,-22.39,-6.2823074.00,-6.66,2.61,8.39,-0.37,-0.11,0.56,-63.43,-22.39,-6.2823126.00,-8.86,0.47,4.64,0.08,0.54,-0.16,-60.97,-23.45,-6.2823178.00,-11.12,0.89,3.45,-0.06,-0.36,-0.18,-60.97,-23.45,-6.2823229.00,-6.37,1.42,3.19,-0.64,0.64,-0.17,-63.26,-22.57,-8.1523281.00,-7.45,1.33,6.14,-0.46,0.10,-0.26,-63.26,-22.57,-8.1523333.00,-6.48,0.79,6.46,0.16,-0.34,-0.02,-63.26,-22.57,-8.1523384.00,-8.19,1.17,6.01,0.81,-0.09,0.05,-64.49,-22.04,-8.3223436.00,-8.70,1.78,4.41,0.26,0.00,0.14,-64.49,-22.04,-8.3223488.00,-7.29,1.34,5.65,-0.03,-0.18,0.42,-62.38,-23.09,-8.3223540.00,-7.67,2.13,6.55,0.24,0.13,0.49,-62.38,-23.09,-8.3223591.00,-9.23,2.48,5.25,0.16,0.05,-0.23,-62.38,-23.09,-8.3223643.00,-7.09,1.64,5.70,0.20,0.07,-0.97,-62.90,-25.03,-8.1523695.00,-8.43,1.61,5.12,-0.36,0.09,0.00,-62.90,-25.03,-8.1523747.00,-8.68,1.90,5.41,-0.14,0.19,0.41,-62.20,-22.92,-6.7923798.00,-7.71,1.08,5.21,0.20,0.09,-0.21,-62.20,-22.92,-6.7923850.00,-7.12,1.70,4.62,0.09,-0.06,-0.15,-63.61,-22.92,-6.7923902.00,-8.64,2.79,4.46,-0.18,-0.02,0.21,-63.61,-22.92,-6.7923954.00,-8.30,1.54,4.44,-0.30,0.14,0.46,-63.61,-22.92,-6.7924005.00,-8.22,1.32,6.09,-0.15,0.06,0.11,-64.13,-23.80,-8.3224057.00,-8.10,1.66,4.58,-0.03,0.12,-0.30,-64.13,-23.80,-8.3224109.00,-8.34,0.04,4.20,-0.02,-0.11,-0.15,-63.43,-20.98,-6.9624161.00,-7.39,1.71,5.38,-0.48,-0.63,0.41,-63.43,-20.98,-6.9624212.00,-6.81,1.08,7.55,-0.01,0.37,0.19,-63.43,-20.98,-6.9624264.00,-8.49,2.46,2.66,-0.07,0.25,0.26,-62.73,-22.74,-7.9824316.00,-8.64,0.36,5.00,-0.26,-0.30,-0.36,-62.73,-22.74,-7.9824367.00,-7.18,0.79,6.60,-0.01,0.20,-0.27,-62.20,-22.92,-8.8324419.00,-7.71,0.91,5.50,0.33,0.64,-0.19,-62.20,-22.92,-8.8324471.00,-8.50,1.25,4.75,0.03,0.12,0.10,-63.26,-23.27,-7.4724523.00,-8.69,1.70,4.89,0.11,0.10,0.36,-63.26,-23.27,-7.4724574.00,-8.15,0.62,5.13,-0.44,-0.04,0.32,-63.26,-23.27,-7.4724626.00,-8.54,1.69,5.25,-0.02,-0.06,0.09,-64.84,-23.80,-5.6124678.00,-8.57,-0.06,5.11,0.20,0.06,-0.37,-64.84,-23.80,-5.6124730.00,-7.92,0.87,4.66,-0.24,0.29,-0.25,-65.01,-21.16,-5.1024782.00,-8.23,1.92,2.73,-0.34,0.26,0.32,-65.01,-21.16,-5.1024833.00,-8.57,1.46,5.65,-0.01,-0.01,0.27,-65.01,-21.16,-5.1024885.00,-8.22,1.85,5.35,-0.13,0.05,-0.26,-63.61,-23.62,-5.1024937.00,-8.43,1.55,5.53,-0.17,-0.02,-0.09,-63.61,-23.62,-5.1024989.00,-8.60,1.27,5.06,-0.07,0.01,0.57,-64.84,-21.33,-5.6125040.00,-8.39,0.82,4.84,-0.08,0.03,0.10,-64.84,-21.33,-5.6125092.00,-8.71,2.15,4.66,-0.32,0.10,-0.10,-64.84,-21.33,-5.6125144.00,-8.18,-0.29,5.14,-0.12,0.02,-0.22,-63.96,-23.62,-5.7725196.00,-10.60,1.60,3.45,0.24,-0.49,0.16,-63.96,-23.62,-5.7725248.00,-7.82,1.22,5.84,-0.06,-1.28,0.05,-63.43,-21.68,-7.9825299.00,-7.84,0.62,7.49,0.03,-0.34,0.02,-63.43,-21.68,-7.9825351.00,-6.99,0.19,6.83,0.22,-0.30,-0.60,-62.20,-22.92,-10.8725403.00,-6.72,-0.91,5.25,0.31,-0.00,-0.70,-62.20,-22.92,-10.8725455.00,-6.20,-0.17,4.68,0.53,0.17,-0.70,-62.20,-22.92,-10.8725507.00,-7.59,1.16,4.74,0.56,0.11,-0.27,-63.26,-17.98,-9.1725559.00,-8.72,1.60,4.25,0.46,0.27,0.35,-63.26,-17.98,-9.1725611.00,-10.88,1.12,4.29,0.61,0.74,0.50,-63.08,-20.27,-8.6625662.00,-7.06,2.37,5.71,0.08,-0.44,0.43,-63.08,-20.27,-8.6625714.00,-9.70,1.19,6.47,0.15,0.21,-0.08,-63.08,-20.27,-8.6625766.00,-7.93,2.07,4.49,-0.20,-0.14,0.15,-62.38,-22.74,-7.3025818.00,-7.75,1.37,5.91,-0.09,-0.03,0.01,-62.38,-22.74,-7.3025870.00,-8.55,1.70,5.40,0.15,0.22,0.25,-60.97,-21.68,-7.9825922.00,-8.46,1.10,4.46,-0.08,0.18,0.06,-60.97,-21.68,-7.9825973.00,-7.84,2.12,3.87,-0.01,0.01,0.04,-60.97,-21.68,-7.9826026.00,-7.59,0.68,6.32,0.10,-0.10,-0.00,-63.78,-23.09,-7.3026078.00,-8.88,2.11,4.37,0.06,0.05,-0.07,-63.78,-23.09,-7.3026130.00,-7.93,2.92,4.91,0.07,0.19,-0.56,-62.03,-21.33,-7.9826181.00,-6.62,0.54,5.70,0.30,0.04,-0.72,-62.03,-21.33,-7.9826233.00,-8.99,1.41,3.87,-0.47,-0.02,0.34,-63.61,-19.04,-6.4526285.00,-8.44,1.30,4.17,-0.43,0.08,0.11,-63.61,-19.04,-6.4526337.00,-8.22,0.31,5.73,-0.14,0.23,0.17,-63.61,-19.04,-6.4526389.00,-8.00,0.99,5.00,0.08,0.07,0.24,-65.01,-21.16,-6.4526441.00,-8.73,0.87,4.88,0.03,-0.17,-0.05,-65.01,-21.16,-6.4526493.00,-8.76,0.57,5.66,-0.04,0.15,-0.51,-64.13,-20.98,-6.6226545.00,-8.27,1.50,4.58,-0.35,0.35,-0.02,-64.13,-20.98,-6.6226597.00,-8.24,0.56,5.02,0.01,0.01,-0.03,-64.13,-20.98,-6.6226649.00,-8.46,1.10,4.22,0.00,0.04,-0.03,-63.61,-19.75,-7.1326701.00,-8.39,0.52,4.91,0.21,-0.09,0.04,-63.61,-19.75,-7.1326753.00,-8.93,1.62,3.81,-0.17,-0.59,0.12,-64.84,-19.57,-5.9426805.00,-7.59,0.67,4.93,-0.19,-0.06,0.16,-64.84,-19.57,-5.9426857.00,-8.21,1.17,5.36,-0.35,-0.06,0.04,-64.13,-21.33,-7.3026909.00,-6.97,0.43,6.42,-0.20,-0.18,-0.01,-64.13,-21.33,-7.3026961.00,-7.77,0.91,5.20,0.15,-0.01,-0.06,-64.13,-21.33,-7.3027012.00,-8.75,0.92,4.48,0.06,0.02,-0.05,-62.20,-21.16,-7.8127064.00,-8.11,1.09,5.27,-0.07,-0.13,-0.05,-62.20,-21.16,-7.8127116.00,-7.57,0.82,5.69,0.07,0.05,0.10,-63.61,-19.75,-7.8127168.00,-8.75,0.71,5.84,-0.03,0.12,0.23,-63.61,-19.75,-7.8127220.00,-8.93,0.83,5.05,0.16,0.01,-0.07,-63.61,-19.75,-7.8127272.00,-7.74,1.20,5.24,-0.00,0.03,-0.16,-63.96,-20.80,-7.8127324.00,-8.38,0.21,5.14,-0.30,0.06,0.00,-63.96,-20.80,-7.8127376.00,-8.33,1.70,3.95,-0.25,0.02,0.30,-62.38,-19.57,-8.3227428.00,-8.37,0.89,5.06,0.00,-0.04,0.12,-62.38,-19.57,-8.3227480.00,-8.36,0.69,4.92,-0.10,-0.33,-0.05,-62.38,-19.57,-8.3227532.00,-7.57,0.69,5.78,-0.11,0.14,0.01,-63.26,-19.39,-8.1527584.00,-7.60,0.42,5.37,0.09,0.34,0.13,-63.26,-19.39,-8.1527636.00,-8.67,1.59,4.34,-0.01,0.04,-0.07,-64.49,-20.98,-6.2827688.00,-8.38,1.51,5.99,0.12,0.03,-0.37,-64.49,-20.98,-6.2827739.00,-8.38,1.16,5.38,0.04,0.18,0.12,-64.13,-19.57,-6.2827791.00,-8.10,0.36,5.64,-0.15,-0.10,0.19,-64.13,-19.57,-6.2827843.00,-8.99,0.88,5.10,-0.51,-0.32,0.30,-64.13,-19.57,-6.2827895.00,-9.06,1.98,5.42,-0.09,-0.03,-0.04,-64.13,-20.27,-6.6227947.00,-8.41,1.17,5.79,0.04,0.13,-0.10,-64.13,-20.27,-6.6227999.00,-8.23,0.22,4.57,-0.16,0.11,0.34,-62.90,-20.80,-6.4528051.00,-8.95,2.04,4.86,0.05,0.04,-0.02,-62.90,-20.80,-6.4528103.00,-8.06,0.15,4.82,-0.19,0.17,-0.58,-62.90,-20.80,-6.4528155.00,-7.71,-0.23,2.59,-0.24,0.20,0.12,-64.49,-20.27,-5.2728207.00,-8.70,-0.14,4.66,-0.10,0.07,0.41,-64.49,-20.27,-5.2728259.00,-8.86,0.86,5.78,0.06,0.13,0.09,-65.89,-20.63,-6.9628311.00,-8.27,0.10,4.40,0.07,0.20,-0.29,-65.89,-20.63,-6.9628363.00,-7.56,-0.33,2.66,-0.02,-0.15,-0.22,-65.01,-19.75,-4.7628415.00,-7.15,1.16,5.16,-0.19,-1.33,0.38,-65.01,-19.75,-4.7628467.00,-6.62,1.21,7.96,-0.45,-0.36,0.41,-65.01,-19.75,-4.7628519.00,-8.63,2.04,2.68,-0.07,0.27,0.13,-64.66,-21.51,-7.4728571.00,-9.02,1.61,4.25,0.13,-0.12,-0.10,-64.66,-21.51,-7.4728623.00,-7.64,1.39,6.49,-0.03,-0.64,-0.21,-64.13,-20.98,-9.3428675.00,-8.43,1.50,4.30,-0.09,0.42,-0.12,-64.13,-20.98,-9.3428727.00,-7.09,-1.23,6.20,0.03,0.21,-0.15,-64.13,-20.98,-9.3428779.00,-7.61,-0.50,6.74,0.09,-0.32,-0.19,-65.01,-20.10,-9.1728831.00,-7.79,1.07,5.39,0.31,-0.08,0.08,-65.01,-20.10,-9.1728882.00,-8.84,1.07,4.70,0.23,-0.08,0.08,-65.01,-20.10,-9.1728935.00,-7.81,0.32,5.63,0.05,0.10,-0.03,-65.01,-20.10,-9.1728987.00,-8.19,0.88,5.38,0.20,0.38,0.01,-65.01,-20.10,-9.1729039.00,-8.42,0.97,4.51,-0.15,0.04,0.00,-65.36,-20.10,-8.1529090.00,-7.95,1.00,5.41,0.06,-0.07,0.32,-65.36,-20.10,-8.1529143.00,-8.04,0.88,4.78,-0.15,-0.17,0.22,-64.49,-22.74,-7.3029195.00,-8.87,1.20,5.32,0.01,-0.10,-0.35,-64.49,-22.74,-7.3029247.00,-8.57,0.92,4.47,0.02,0.05,-0.48,-63.78,-19.92,-9.0029299.00,-7.83,0.52,4.84,0.07,0.18,0.13,-63.78,-19.92,-9.0029351.00,-8.50,0.68,5.37,-0.05,-0.01,0.50,-63.78,-19.92,-9.0029403.00,-9.17,2.13,5.42,-0.13,-0.12,0.41,-66.24,-21.68,-7.9829455.00,-9.87,2.92,5.83,-0.29,-0.07,-0.27,-66.24,-21.68,-7.9829507.00,-7.91,-0.35,4.90,0.04,0.35,-0.66,-65.89,-19.57,-7.9829559.00,-7.98,0.21,4.94,0.15,0.25,0.09,-65.89,-19.57,-7.9829611.00,-8.01,0.01,4.94,0.03,-0.02,0.47,-65.89,-19.57,-7.9829663.00,-8.29,0.45,4.98,-0.12,-0.09,0.02,-66.42,-21.51,-8.1529715.00,-8.58,0.28,5.68,-0.14,0.29,-0.63,-66.42,-21.51,-8.1529767.00,-8.37,1.29,4.32,-0.27,0.33,0.02,-66.07,-20.10,-7.1329819.00,-10.31,1.90,3.18,0.03,-0.12,0.57,-66.07,-20.10,-7.1329871.00,-7.67,0.90,5.49,-0.34,-0.53,0.11,-66.07,-20.10,-7.1329923.00,-7.90,0.33,5.61,-0.11,-0.09,-0.08,-65.36,-23.27,-8.1529976.00,-7.42,0.48,5.78,0.20,0.05,-0.20,-65.36,-23.27,-8.1530028.00,-8.99,0.69,4.59,0.29,0.37,-0.20,-65.01,-20.45,-9.1730080.00,-8.69,0.72,4.46,0.09,0.07,-0.08,-65.01,-20.45,-9.1730132.00,-8.35,1.02,4.74,0.29,0.08,0.40,-64.13,-21.33,-7.3030184.00,-7.55,0.84,5.71,-0.21,-0.12,0.59,-64.13,-21.33,-7.3030236.00,-8.58,0.63,4.93,-0.04,-0.04,-0.04,-66.95,-22.04,-8.6630288.00,-8.92,0.43,4.81,-0.03,0.03,-0.33,-66.95,-22.04,-8.6630340.00,-8.23,-0.38,4.15,0.05,0.31,-0.34,-66.95,-22.04,-8.6630392.00,-8.02,-0.51,4.52,0.11,0.27,-0.26,-66.07,-19.75,-7.8130444.00,-8.65,0.91,4.78,-0.22,-0.46,0.46,-66.07,-19.75,-7.8130496.00,-7.77,0.93,6.72,-0.10,-0.13,0.59,-63.61,-21.16,-8.4930548.00,-9.27,0.64,5.84,-0.22,0.23,0.21,-63.61,-21.16,-8.4930601.00,-9.10,2.72,4.76,-0.09,0.03,-0.19,-63.61,-21.16,-8.4930653.00,-8.28,0.13,4.67,0.21,0.07,-0.64,-64.84,-23.09,-7.3030705.00,-8.51,1.62,5.42,-0.12,-0.44,0.16,-64.84,-23.09,-7.3030757.00,-8.70,0.95,4.21,-0.10,0.19,0.06,-64.66,-20.45,-7.4730809.00,-7.29,-0.33,6.15,-0.27,-0.26,-0.04,-64.66,-20.45,-7.4730861.00,-7.77,0.23,6.13,0.28,0.02,-0.08,-64.66,-20.45,-7.4730913.00,-8.84,1.00,4.19,0.11,0.18,0.02,-65.19,-20.27,-7.3030965.00,-8.31,0.59,5.00,-0.06,-0.24,-0.06,-65.19,-20.27,-7.3031018.00,-7.80,0.58,5.51,0.03,-0.11,-0.06,-65.19,-20.98,-7.3031070.00,-8.27,0.20,4.91,0.12,0.38,-0.14,-65.19,-20.98,-7.3031122.00,-8.36,0.40,4.66,0.16,0.06,-0.04,-65.72,-18.69,-8.4931174.00,-8.18,0.04,4.38,-0.04,0.04,0.17,-65.72,-18.69,-8.4931226.00,-8.07,0.43,5.23,-0.08,-0.09,0.36,-65.72,-18.69,-8.4931279.00,-8.54,0.69,5.10,-0.08,-0.08,-0.08,-64.66,-21.51,-8.4931331.00,-8.82,1.02,5.00,-0.03,0.05,-0.47,-64.66,-21.51,-8.4931383.00,-8.28,0.95,5.09,-0.13,0.26,-0.18,-64.84,-19.92,-6.9631435.00,-8.51,-0.15,5.03,-0.16,0.00,0.34,-64.84,-19.92,-6.9631487.00,-8.52,0.55,4.92,-0.05,0.05,0.11,-64.84,-19.92,-6.9631539.00,-8.63,0.78,5.18,-0.10,0.16,-0.22,-65.72,-20.80,-7.8131592.00,-8.52,0.91,4.49,-0.06,0.21,-0.01,-65.72,-20.80,-7.8131644.00,-8.35,1.17,4.33,0.11,0.05,0.28,-64.84,-20.63,-6.6231696.00,-8.86,0.43,4.81,-0.38,-0.20,0.33,-64.84,-20.63,-6.6231748.00,-8.56,0.89,4.50,-0.05,-0.20,0.09,-64.84,-20.63,-6.6231800.00,-8.97,2.53,5.20,-0.20,0.02,-0.16,-62.73,-20.63,-7.3031853.00,-8.03,-0.95,4.67,-0.09,0.32,-0.54,-62.73,-20.63,-7.3031905.00,-7.48,-0.20,3.37,0.19,0.17,0.10,-65.72,-19.75,-7.1331957.00,-8.77,0.84,4.88,0.16,-0.05,0.45,-65.72,-19.75,-7.1332009.00,-8.81,0.99,4.42,-0.22,0.05,-0.06,-65.01,-20.45,-4.4232062.00,-8.41,-0.58,4.51,-0.14,0.23,-0.31,-65.01,-20.45,-4.4232114.00,-8.33,0.06,5.13,-0.17,0.13,-0.18,-65.01,-20.45,-4.4232166.00,-8.80,0.57,4.89,0.01,-0.08,0.54,-65.19,-19.92,-5.6132218.00,-8.78,0.74,4.36,0.02,0.00,0.16,-65.19,-19.92,-5.6132271.00,-9.01,1.28,4.85,-0.30,0.01,-0.28,-66.77,-22.57,-5.1032323.00,-8.59,0.87,4.29,-0.12,0.27,-0.12,-66.77,-22.57,-5.1032375.00,-8.29,0.42,3.99,-0.12,0.12,0.02,-66.77,-22.57,-5.1032427.00,-8.70,0.60,4.56,-0.12,-0.11,0.45,-65.54,-18.86,-4.9332479.00,-8.66,-0.42,3.69,-0.05,0.05,-0.01,-65.54,-18.86,-4.9332532.00,-8.83,-0.37,5.14,-0.19,0.15,-0.46,-67.12,-21.51,-4.7632584.00,-8.15,-0.13,3.55,-0.29,0.38,-0.06,-67.12,-21.51,-4.7632636.00,-8.97,-0.69,3.77,0.24,-0.15,-0.08,-66.24,-21.68,-2.8932689.00,-9.06,1.12,3.34,-0.06,-0.81,-0.10,-66.24,-21.68,-2.8932741.00,-7.29,-0.95,6.38,-0.13,-0.31,-0.15,-66.24,-21.68,-2.8932793.00,-8.54,0.22,4.88,0.14,0.17,0.07,-65.19,-19.57,-6.2832845.00,-8.77,0.53,4.54,0.02,-0.12,-0.02,-65.19,-19.57,-6.2832898.00,-8.24,-0.20,5.01,0.04,-0.01,-0.04,-65.19,-19.57,-8.3232950.00,-8.63,0.16,4.58,0.10,0.05,-0.03,-65.19,-19.57,-8.3233002.00,-8.53,0.23,4.85,0.02,-0.13,-0.02,-63.96,-19.39,-6.4533054.00,-8.15,-0.18,5.33,0.01,-0.03,-0.04,-63.96,-19.39,-6.4533107.00,-8.86,0.55,4.42,0.12,0.04,0.02,-63.96,-19.39,-6.4533159.00,-8.41,0.15,4.81,0.00,-0.13,-0.10,-65.72,-19.75,-7.4733211.00,-8.34,0.14,4.89,-0.02,-0.13,-0.10,-65.72,-19.75,-7.4733264.00,-8.19,-0.15,5.05,0.09,-0.06,-0.06,-65.19,-18.86,-6.2833316.00,-8.45,0.23,5.07,0.12,-0.00,0.00,-65.19,-18.86,-6.2833368.00,-8.42,0.06,5.01,0.09,-0.04,-0.15,-65.19,-18.86,-6.2833420.00,-8.14,-0.65,4.80,0.13,-0.04,-0.07,-65.36,-19.04,-7.4733473.00,-8.43,0.61,5.50,0.22,-0.14,0.11,-65.36,-19.04,-7.4733525.00,-9.06,-0.17,7.14,0.44,-0.33,-0.01,-66.07,-19.04,-8.8333578.00,-8.17,0.13,5.64,0.79,-0.11,0.17,-66.07,-19.04,-8.8333630.00,-6.92,-0.05,4.92,0.66,-0.33,-0.25,-64.31,-20.80,-7.8133682.00,-7.08,-0.36,3.84,0.70,-0.23,-0.49,-64.31,-20.80,-7.8133735.00,-7.18,0.33,3.99,0.84,-0.33,-0.55,-64.31,-20.80,-7.8133787.00,-8.78,1.88,4.63,1.01,-0.15,0.32,-64.49,-18.51,-11.7233839.00,-8.09,1.69,5.35,0.33,-0.38,0.54,-64.49,-18.51,-11.7233891.00,-7.64,2.29,5.60,0.32,-0.40,0.86,-63.08,-23.80,-11.0433944.00,-7.00,1.78,7.33,-0.26,0.09,0.56,-63.08,-23.80,-11.0433996.00,-7.59,2.52,6.48,0.25,0.46,0.01,-63.08,-23.80,-11.0434048.00,-8.62,3.10,5.87,0.14,0.38,0.06,-62.73,-25.21,-13.0834101.00,-7.32,1.73,5.38,-0.29,-0.14,-0.09,-62.73,-25.21,-13.0834153.00,-7.08,1.46,5.42,0.09,-0.05,-0.12,-63.43,-23.80,-11.3834205.00,-9.58,2.99,4.59,0.11,0.16,0.21,-63.43,-23.80,-11.3834258.00,-7.55,1.60,5.63,0.03,0.03,0.02,-63.96,-24.33,-10.1934310.00,-7.80,2.05,5.99,0.00,0.12,-0.19,-63.96,-24.33,-10.1934362.00,-8.90,1.31,3.18,0.09,0.43,-0.28,-63.96,-24.33,-10.1934415.00,-8.17,1.95,5.14,0.03,0.01,0.08,-64.66,-24.68,-9.5134467.00,-8.07,2.48,5.52,0.11,-0.00,0.44,-64.66,-24.68,-9.5134519.00,-8.67,2.30,5.25,0.01,0.01,0.02,-64.49,-23.80,-7.6434572.00,-8.54,1.98,4.85,-0.31,0.04,-0.61,-64.49,-23.80,-7.6434624.00,-7.73,2.05,5.93,-0.09,-0.00,-0.03,-64.49,-23.80,-7.6434676.00,-7.79,0.82,4.80,-0.04,0.12,0.36,-64.84,-24.15,-9.3434729.00,-8.58,1.47,4.60,0.05,0.07,0.02,-64.84,-24.15,-9.3434781.00,-7.66,1.93,4.83,-0.03,0.00,-0.41,-66.24,-24.15,-8.3234833.00,-7.53,2.03,5.36,-0.10,-0.02,-0.05,-66.24,-24.15,-8.3234886.00,-8.62,1.81,5.25,0.11,0.12,0.38,-64.84,-25.56,-10.0234938.00,-8.53,2.38,5.26,-0.10,-0.02,-0.20,-64.84,-25.56,-10.0234991.00,-7.69,1.57,5.12,-0.18,0.06,-0.34,-64.84,-25.56,-10.0235043.00,-7.84,1.12,4.74,0.06,0.14,0.21,-65.72,-23.62,-7.1335095.00,-8.51,1.48,4.59,0.01,0.09,0.19,-65.72,-23.62,-7.1335148.00,-8.12,1.85,4.39,-0.03,0.04,-0.24,-65.19,-25.21,-7.9835200.00,-8.02,1.98,5.55,0.02,0.12,0.04,-65.19,-25.21,-7.9835253.00,-7.65,1.30,5.64,0.03,0.01,0.14,-65.19,-25.21,-7.9835305.00,-8.39,1.93,5.24,-0.28,-0.19,0.21,-64.84,-24.15,-7.3035357.00,-8.51,2.01,5.28,-0.22,-0.22,-0.16,-64.84,-24.15,-7.3035410.00,-8.53,1.46,5.08,0.07,0.07,-0.47,-65.01,-23.98,-7.8135462.00,-7.77,1.79,4.87,0.05,0.20,0.12,-65.01,-23.98,-7.8135514.00,-8.13,2.32,4.20,-0.15,0.03,0.36,-64.66,-23.98,-7.8135567.00,-8.59,1.71,4.44,-0.01,0.01,0.08,-64.66,-23.98,-7.8135619.00,-8.17,2.90,4.71,0.02,0.15,-0.11,-64.66,-23.98,-7.8135672.00,-7.56,0.75,5.61,-0.03,0.12,-0.17,-64.13,-24.51,-7.6435724.00,-8.56,1.47,4.93,-0.13,0.06,0.43,-64.13,-24.51,-7.6435776.00,-8.78,1.64,4.32,0.02,0.05,-0.00,-64.66,-25.39,-7.4735829.00,-8.09,2.14,4.32,-0.12,0.07,-0.20,-64.66,-25.39,-7.4735881.00,-8.57,1.60,4.70,-0.21,0.10,0.27,-64.84,-24.51,-6.6235934.00,-8.77,2.04,4.15,-0.00,0.17,0.30,-64.84,-24.51,-6.6235986.00,-8.46,3.04,4.56,-0.00,0.08,-0.24,-64.84,-24.51,-6.6236040.00,-7.96,1.34,5.26,-0.22,-0.05,-0.10,-65.54,-23.80,-5.2736094.00,-8.75,1.15,4.77,-0.27,0.01,0.28,-65.54,-23.80,-5.2736145.00,-8.58,1.61,4.49,-0.07,-0.05,-0.02,-65.19,-24.15,-6.6236196.00,-8.98,0.72,4.24,-0.19,-0.48,-0.10,-65.19,-24.15,-6.6236247.00,-6.41,0.81,6.95,-0.24,-0.80,0.14,-65.19,-24.15,-6.6236298.00,-6.94,1.70,7.48,-0.03,0.27,0.21,-65.19,-25.56,-10.0236349.00,-8.69,2.80,1.65,-0.12,0.17,0.12,-65.19,-25.56,-10.0236399.00,-9.43,0.82,5.10,-0.33,-0.59,-0.24,-64.84,-24.51,-7.9836450.00,-6.76,1.55,3.36,-0.29,0.70,-0.06,-64.84,-24.51,-7.9836501.00,-7.63,-0.67,6.87,-0.31,-0.10,-0.45,-64.84,-24.51,-7.9836552.00,-7.00,1.07,6.07,-0.08,-0.17,0.08,-64.66,-22.92,-8.4936603.00,-7.88,1.34,5.11,0.41,-0.10,0.11,-64.66,-22.92,-8.4936654.00,-8.52,1.69,4.68,0.28,0.12,0.35,-65.19,-23.09,-9.0036705.00,-9.17,0.92,4.47,0.13,0.08,-0.13,-65.19,-23.09,-9.0036755.00,-7.96,1.65,4.76,0.37,0.30,-0.88,-65.19,-23.09,-9.0036806.00,-7.94,1.05,5.16,0.06,-0.03,-0.16,-65.19,-23.09,-7.9836857.00,-8.69,0.20,4.60,-0.81,-0.23,0.28,-65.19,-23.09,-7.9836908.00,-8.61,1.07,4.89,-0.13,0.08,0.22,-65.72,-23.27,-8.1536959.00,-8.32,1.52,5.19,0.10,0.09,0.40,-65.72,-23.27,-8.1537010.00,-8.33,1.34,5.39,-0.02,-0.05,0.15,-65.72,-23.27,-8.1537061.00,-8.71,0.77,5.05,-0.08,-0.03,-0.11,-65.19,-23.80,-7.3037112.00,-8.39,2.17,5.49,0.07,0.15,-0.15,-65.19,-23.80,-7.3037163.00,-8.07,1.46,4.13,0.18,0.09,-0.02,-65.54,-23.09,-6.2837213.00,-9.18,0.77,4.04,0.09,-0.32,0.00,-65.54,-23.09,-6.2837265.00,-6.93,0.69,6.41,-0.37,-0.72,0.31,-65.72,-22.57,-8.8337316.00,-7.25,1.74,7.37,0.02,0.03,0.18,-65.72,-22.57,-8.8337366.00,-8.66,2.67,3.39,-0.10,0.22,0.25,-65.72,-22.57,-8.8337417.00,-9.16,1.89,5.01,0.16,-0.14,-0.16,-63.61,-23.98,-8.1537468.00,-7.85,1.99,6.17,-0.02,-0.23,0.02,-63.61,-23.98,-8.1537519.00,-7.55,1.84,3.63,-0.11,0.62,0.09,-63.61,-23.98,-8.1537570.00,-7.30,0.29,6.30,-0.23,-0.17,-0.00,-66.24,-25.56,-7.6437621.00,-7.19,0.72,6.95,0.28,-0.27,-0.00,-66.24,-25.56,-7.6437672.00,-8.12,1.56,5.25,0.52,0.12,-0.05,-63.78,-23.45,-10.7037723.00,-8.20,1.54,5.03,0.14,0.22,-0.17,-63.78,-23.45,-10.7037774.00,-8.22,2.52,4.62,-0.09,0.01,0.12,-65.72,-23.27,-6.4537825.00,-8.05,2.03,5.63,-0.20,-0.04,0.35,-65.72,-23.27,-6.4537876.00,-8.57,2.08,5.25,0.08,-0.01,0.26,-65.72,-23.27,-6.4537927.00,-7.82,2.13,5.13,0.06,0.12,-0.53,-64.84,-26.97,-9.0037978.00,-7.96,2.52,5.48,-0.01,-0.03,-0.06,-64.84,-26.97,-9.0038029.00,-8.10,2.41,4.11,-0.14,0.07,0.63,-63.96,-23.98,-6.7938080.00,-8.50,0.67,4.97,-0.05,0.03,0.00,-63.96,-23.98,-6.7938131.00,-8.33,2.04,4.80,-0.07,0.14,-0.31,-63.96,-23.98,-6.7938304.00,-8.18,0.76,5.69,-0.16,0.03,-0.42,-64.84,-23.09,-7.3038355.00,-8.26,1.90,4.16,-0.12,0.22,-0.13,-64.84,-23.09,-7.3038406.00,-10.00,1.93,2.56,0.02,0.03,0.26,-67.12,-23.62,-8.1538457.00,-7.56,1.21,5.43,-0.51,-0.62,-0.02,-67.12,-23.62,-8.1538508.00,-7.51,0.53,6.43,-0.30,-0.07,0.06,-67.12,-23.62,-8.1538559.00,-6.93,0.90,7.20,0.00,0.09,0.14,-64.84,-22.39,-10.0238611.00,-9.01,1.91,4.49,0.11,0.34,0.43,-64.84,-22.39,-10.0238662.00,-8.64,1.02,5.02,0.02,-0.16,0.12,-66.77,-24.68,-7.4738713.00,-9.20,1.45,4.82,0.19,-0.08,-0.30,-66.77,-24.68,-7.4738764.00,-8.17,2.01,4.96,0.11,0.16,-0.30,-65.89,-23.80,-7.6438815.00,-7.30,0.23,5.45,0.20,0.02,-0.35,-65.89,-23.80,-7.6438866.00,-9.10,2.13,4.24,-0.13,-0.05,0.37,-65.89,-23.80,-7.6438917.00,-8.54,1.14,4.61,-0.20,0.12,-0.01,-65.72,-24.68,-7.1338968.00,-7.99,0.81,5.08,0.09,0.24,0.02,-65.72,-24.68,-7.1339019.00,-8.20,1.69,5.35,0.17,0.08,0.24,-65.72,-24.68,-7.1339070.00,-7.84,0.57,4.57,-0.12,-0.05,0.15,-65.01,-23.98,-6.7939122.00,-8.54,1.40,4.92,-0.22,-0.20,0.18,-65.01,-23.98,-6.7939173.00,-9.14,3.53,4.81,-0.19,-0.11,-0.15,-65.54,-26.27,-6.2839224.00,-8.03,1.76,4.50,0.11,0.19,-0.11,-65.54,-26.27,-6.2839411.00,-8.19,1.19,4.68,-0.16,0.13,-0.22,-65.89,-23.80,-5.9439463.00,-7.90,0.63,4.11,-0.07,0.13,0.27,-65.89,-23.80,-5.9439514.00,-8.88,0.99,4.51,-0.07,-0.02,0.25,-65.89,-23.80,-5.9439565.00,-8.45,1.33,4.33,-0.22,0.11,-0.37,-65.19,-25.21,-6.2839616.00,-8.45,2.02,5.20,-0.14,0.09,-0.07,-65.19,-25.21,-6.2839667.00,-8.44,0.57,4.30,-0.00,0.17,0.39,-66.59,-24.86,-5.2739718.00,-8.79,0.64,4.44,0.14,0.12,0.05,-66.59,-24.86,-5.2739770.00,-8.37,1.77,4.22,0.18,0.01,-0.12,-66.42,-24.68,-4.7639821.00,-8.29,0.10,4.82,-0.21,-0.02,-0.37,-66.42,-24.68,-4.7639872.00,-8.28,1.31,3.35,-0.09,0.14,0.29,-66.42,-24.68,-4.7639923.00,-9.81,1.68,3.56,0.12,-0.28,0.01,-66.59,-25.21,-4.9339974.00,-7.25,1.52,3.97,-0.35,-0.96,-0.02,-66.59,-25.21,-4.9340025.00,-6.73,1.63,7.88,-0.12,-0.24,0.41,-65.01,-24.33,-10.1940076.00,-11.56,1.10,1.38,-0.06,0.96,-0.07,-65.01,-24.33,-10.1940128.00,-11.18,1.59,3.00,0.01,-0.25,-0.26,-65.01,-24.33,-10.1940179.00,-8.14,1.55,6.99,-0.30,-0.47,-0.17,-63.78,-24.15,-7.9840230.00,-7.02,0.56,5.72,-0.08,0.22,-0.50,-63.78,-24.15,-7.9840281.00,-7.19,-1.21,6.00,0.03,0.03,-0.21,-66.59,-23.45,-7.6440332.00,-7.59,0.13,5.00,0.40,0.19,0.25,-66.59,-23.45,-7.6440384.00,-9.73,1.75,3.87,0.32,0.25,0.15,-66.59,-23.45,-7.6440565.00,-7.42,0.27,4.28,-0.27,-0.43,0.93,-66.77,-21.16,-5.7740616.00,-9.18,1.75,4.96,0.17,-0.03,0.55,-66.77,-21.16,-5.7740668.00,-9.12,2.15,5.28,0.16,0.05,-0.17,-66.59,-26.97,-7.3040719.00,-7.78,-0.64,4.84,0.15,-0.01,-0.57,-66.59,-26.97,-7.3040770.00,-8.82,0.78,4.68,-0.22,0.03,-0.04,-65.54,-22.74,-6.2840821.00,-8.57,0.85,4.30,-0.27,0.10,0.17,-65.54,-22.74,-6.2840873.00,-8.17,0.70,5.79,0.03,0.13,0.13,-65.54,-22.74,-6.2840924.00,-8.54,1.15,4.39,0.08,-0.04,0.35,-66.59,-24.51,-5.2740975.00,-8.16,0.56,4.54,-0.00,-0.10,0.12,-66.59,-24.51,-5.2741026.00,-8.92,1.55,5.11,-0.21,-0.15,-0.06,-65.01,-24.68,-5.7741078.00,-8.82,1.39,4.85,-0.26,0.05,-0.36,-65.01,-24.68,-5.7741129.00,-8.37,0.30,4.41,-0.21,0.14,-0.08,-65.01,-24.68,-5.7741180.00,-8.76,1.69,4.64,-0.04,0.08,0.30,-66.95,-24.15,-5.6141231.00,-8.60,1.22,4.27,-0.15,0.15,-0.13,-66.95,-24.15,-5.6141283.00,-8.07,0.59,4.51,-0.26,0.18,-0.09,-66.95,-24.15,-5.6141334.00,-8.74,-0.03,5.44,-0.25,-0.04,0.29,-66.07,-23.62,-4.4241385.00,-8.96,1.44,4.75,-0.09,0.05,0.24,-66.07,-23.62,-4.4241437.00,-9.31,1.87,4.74,-0.03,0.04,0.15,-65.01,-26.44,-5.4441488.00,-8.69,0.76,4.40,0.01,0.26,-0.22,-65.01,-26.44,-5.4441660.00,-8.66,0.55,3.59,-0.16,0.07,0.16,-66.24,-24.15,-2.8941712.00,-9.76,0.64,3.92,0.30,-0.23,-0.32,-66.24,-24.15,-2.8941763.00,-9.31,1.70,2.87,-0.05,-1.02,-0.18,-66.24,-24.15,-2.8941815.00,-7.39,-0.37,7.63,0.06,-1.42,-0.30,-63.61,-22.92,-10.1941866.00,-8.04,0.08,7.85,0.27,-0.40,-0.14,-63.61,-22.92,-10.1941917.00,-6.40,-0.08,7.27,0.48,-0.42,-0.39,-62.20,-21.86,-12.2341969.00,-5.37,-1.32,5.69,0.67,-0.23,-1.13,-62.20,-21.86,-12.2342020.00,-6.69,-0.96,5.59,0.94,0.29,-0.87,-62.20,-21.86,-12.2342071.00,-8.74,0.85,4.49,0.94,0.03,-0.14,-63.61,-19.39,-13.5942123.00,-8.80,2.18,5.20,0.61,-0.25,0.44,-63.61,-19.39,-13.5942174.00,-8.41,1.92,5.95,0.45,0.62,0.46,-65.36,-20.45,-12.2342225.00,-8.31,0.99,4.02,0.24,0.05,0.11,-65.36,-20.45,-12.2342277.00,-7.00,1.64,4.74,0.08,0.08,0.15,-65.36,-20.45,-12.2342328.00,-9.60,1.63,5.41,0.19,0.23,0.16,-65.01,-23.27,-9.8542380.00,-7.20,1.59,4.89,-0.01,0.03,0.08,-65.01,-23.27,-9.8542431.00,-8.32,1.73,5.43,0.09,0.07,0.06,-64.84,-22.04,-8.6642482.00,-8.99,1.89,5.24,-0.12,0.12,-0.28,-64.84,-22.04,-8.6642534.00,-7.72,2.08,5.27,-0.08,0.10,-0.04,-64.84,-22.74,-7.9842585.00,-7.53,1.04,4.69,-0.19,-0.07,0.20,-64.84,-22.74,-7.9842768.00,-8.30,1.24,5.33,0.20,0.11,0.26,-63.61,-21.86,-8.8342819.00,-9.08,1.52,5.24,0.35,0.09,0.01,-64.31,-23.62,-7.1342871.00,-7.51,1.11,4.81,-0.06,0.12,-0.26,-64.31,-23.62,-7.1342922.00,-8.36,1.52,5.80,-0.08,0.04,0.18,-65.19,-21.68,-6.9642974.00,-8.61,1.21,4.86,0.01,0.06,0.24,-65.19,-21.68,-6.9643025.00,-8.42,2.50,4.56,-0.09,0.16,-0.25,-65.19,-21.68,-6.9643077.00,-7.99,1.08,5.12,0.20,-0.10,-0.10,-63.78,-22.04,-8.3243128.00,-6.26,1.11,5.85,-0.42,-0.78,0.35,-63.78,-22.04,-8.3243180.00,-7.91,1.78,7.71,-0.30,-0.29,0.54,-63.43,-23.09,-9.3443231.00,-8.43,2.87,3.33,-0.12,0.22,0.21,-63.43,-23.09,-9.3443283.00,-8.70,2.92,4.55,0.11,0.14,-0.18,-63.43,-23.09,-9.3443334.00,-9.27,0.94,4.69,-0.12,-0.12,-0.05,-65.01,-24.33,-9.1743386.00,-7.49,2.27,3.64,-0.36,0.26,-0.13,-65.01,-24.33,-9.1743437.00,-6.87,0.11,6.78,-0.30,-0.22,-0.17,-63.61,-23.27,-9.5143489.00,-7.23,0.55,7.32,0.18,-0.07,-0.07,-63.61,-23.27,-9.5143540.00,-8.72,1.11,4.65,0.40,0.62,-0.16,-65.19,-20.98,-7.6443592.00,-8.24,1.90,4.10,0.15,0.07,0.07,-65.19,-20.98,-7.6443644.00,-7.93,1.59,5.84,0.04,-0.06,0.25,-65.19,-20.98,-7.6443695.00,-8.61,1.31,5.30,-0.13,-0.08,0.14,-65.19,-22.39,-8.3243867.00,-7.89,1.23,6.52,-0.07,-0.08,0.53,-64.84,-22.04,-6.9643919.00,-9.16,1.20,5.71,-0.06,-0.14,0.35,-64.49,-23.80,-7.6443971.00,-9.04,2.93,5.20,-0.36,-0.05,-0.23,-64.49,-23.80,-7.6444022.00,-8.26,2.13,5.78,0.03,0.21,-0.30,-64.49,-23.80,-7.6444074.00,-7.99,2.04,4.11,0.10,0.24,0.22,-65.01,-21.16,-8.1544125.00,-7.42,0.59,5.75,-0.07,-0.05,0.39,-65.01,-21.16,-8.1544177.00,-9.41,1.48,5.44,-0.20,-0.17,0.27,-65.36,-22.92,-6.7944229.00,-8.57,-0.51,5.52,-0.07,0.17,-0.67,-65.36,-22.92,-6.7944280.00,-8.00,0.44,5.11,-0.17,0.40,-0.63,-65.36,-22.92,-6.7944332.00,-7.86,1.32,4.59,0.13,0.20,0.20,-65.19,-21.68,-7.6444383.00,-8.51,0.13,5.59,-0.05,-0.09,0.37,-65.19,-21.68,-7.6444435.00,-8.60,1.28,4.21,-0.18,-0.07,0.13,-65.72,-22.92,-5.4444487.00,-8.40,0.68,4.16,-0.26,0.13,-0.45,-65.72,-22.92,-5.4444538.00,-8.17,0.28,3.61,-0.04,0.34,-0.03,-66.95,-21.33,-6.6244590.00,-9.40,1.39,4.03,-0.01,-0.58,0.07,-66.95,-21.33,-6.6244641.00,-7.51,0.54,4.47,-0.12,-0.34,-0.10,-66.95,-21.33,-6.6244693.00,-7.36,0.15,6.26,-0.25,-0.13,-0.02,-64.84,-21.33,-6.2844745.00,-7.51,0.31,6.26,-0.15,-0.10,-0.08,-64.84,-21.33,-6.2844797.00,-8.10,1.10,4.84,0.21,0.18,0.15,-65.36,-21.16,-7.8144973.00,-8.24,1.35,5.12,-0.22,0.03,-0.12,-64.31,-21.86,-7.8145025.00,-8.31,0.26,3.99,-0.13,0.12,0.33,-64.31,-21.86,-7.8145077.00,-8.59,0.09,4.76,0.03,0.04,0.05,-65.54,-22.74,-6.6245129.00,-8.44,1.47,5.01,-0.14,0.14,-0.24,-65.54,-22.74,-6.6245180.00,-8.60,1.28,5.23,0.00,0.12,-0.05,-66.42,-21.51,-5.7745232.00,-8.55,1.46,5.62,0.13,0.06,0.19,-66.42,-21.51,-5.7745284.00,-8.41,1.06,4.89,0.04,-0.03,0.24,-66.42,-21.51,-5.7745335.00,-8.63,0.95,4.48,-0.35,-0.19,0.25,-65.01,-23.27,-5.4445387.00,-8.78,1.08,4.65,-0.22,-0.15,-0.12,-65.01,-23.27,-5.4445439.00,-8.74,1.36,4.86,-0.05,0.08,-0.36,-65.36,-23.27,-6.7945491.00,-8.10,0.62,3.38,-0.00,0.27,0.17,-65.36,-23.27,-6.7945542.00,-8.86,0.69,4.74,-0.06,0.04,0.44,-64.84,-21.68,-5.2745594.00,-8.93,1.40,4.21,-0.02,0.03,-0.08,-64.84,-21.68,-5.2745646.00,-8.70,0.90,5.21,-0.16,0.04,-0.21,-64.84,-21.68,-5.2745698.00,-8.36,0.44,5.31,-0.27,0.13,-0.07,-65.19,-21.33,-5.6145749.00,-9.24,0.14,3.60,0.08,-0.17,-0.04,-65.19,-21.33,-5.6145801.00,-8.69,1.33,3.93,-0.16,-0.81,-0.15,-65.89,-21.68,-6.2845853.00,-7.59,0.16,6.18,-0.08,-0.50,-0.15,-65.89,-21.68,-6.2845905.00,-7.94,0.58,5.60,-0.02,-0.13,-0.10,-65.89,-21.68,-6.2845957.00,-8.47,0.68,4.78,0.13,-0.36,-0.12,-64.13,-20.27,-9.0046128.00,-7.58,-2.56,5.85,0.23,0.06,-0.70,-65.01,-19.04,-10.5346180.00,-7.44,-0.11,5.50,0.44,-0.07,-0.23,-63.08,-14.63,-11.0446231.00,-8.12,1.44,6.26,0.96,0.29,1.03,-63.08,-14.63,-11.0446283.00,-8.32,2.94,4.58,0.81,0.03,0.95,-63.08,-14.63,-11.0446335.00,-7.69,1.80,6.57,0.35,-0.13,0.15,-64.13,-19.57,-9.6846387.00,-7.69,0.67,4.52,0.56,0.23,-0.09,-64.13,-19.57,-9.6846438.00,-8.64,0.50,4.73,0.25,0.21,0.06,-63.96,-21.51,-9.8546490.00,-8.18,1.08,5.26,-0.04,-0.07,0.27,-63.96,-21.51,-9.8546542.00,-7.99,1.86,5.32,-0.09,-0.02,0.24,-64.13,-22.39,-9.6846594.00,-8.95,0.79,6.52,-0.13,0.04,0.38,-64.13,-22.39,-9.6846646.00,-8.42,1.17,4.80,0.19,0.14,0.08,-64.13,-22.39,-9.6846698.00,-6.80,0.92,5.30,-0.01,0.14,-1.00,-63.26,-24.33,-9.1746749.00,-8.44,2.02,5.28,-0.01,0.11,0.00,-63.26,-24.33,-9.1746801.00,-7.87,1.30,4.52,-0.32,0.17,0.02,-65.01,-19.39,-8.4946853.00,-8.61,0.75,4.93,-0.14,-0.21,-0.03,-65.01,-19.39,-8.4946905.00,-7.01,1.35,5.98,-0.43,-0.47,0.28,-65.01,-19.39,-8.4946957.00,-7.65,1.30,6.82,0.07,0.06,0.59,-63.96,-21.51,-9.1747009.00,-8.79,0.91,6.10,-0.13,0.30,0.27,-63.96,-21.51,-9.1747060.00,-8.50,2.92,5.06,-0.16,0.05,-0.48,-64.31,-23.27,-8.1547238.00,-6.91,0.99,6.34,-0.22,-0.33,0.01,-63.78,-21.68,-9.3447290.00,-7.20,-0.02,6.38,0.22,-0.23,-0.05,-63.78,-21.68,-9.3447342.00,-8.27,1.20,5.21,0.35,0.26,-0.09,-63.96,-21.16,-11.2147394.00,-8.55,1.53,5.14,0.06,0.04,-0.04,-63.96,-21.16,-11.2147446.00,-7.71,0.92,5.06,0.12,0.09,0.08,-61.50,-22.92,-9.5147498.00,-7.65,0.64,5.20,-0.06,-0.04,0.23,-61.50,-22.92,-9.5147550.00,-8.81,0.63,5.70,0.05,-0.15,0.27,-61.50,-22.92,-9.5147602.00,-8.59,1.34,4.76,-0.10,0.07,-0.47,-62.90,-21.86,-8.4947654.00,-7.14,0.05,5.26,-0.10,0.25,-0.33,-62.90,-21.86,-8.4947706.00,-7.86,0.22,5.99,-0.16,0.06,0.14,-64.66,-23.27,-8.4947758.00,-8.45,0.95,4.76,0.02,0.10,0.08,-64.66,-23.27,-8.4947809.00,-8.53,1.30,5.15,-0.07,0.02,-0.18,-63.96,-21.86,-8.4947862.00,-8.03,1.62,4.45,0.07,0.16,-0.00,-63.96,-21.86,-8.4947914.00,-7.71,0.37,5.25,0.05,-0.03,0.19,-63.61,-21.86,-7.4747965.00,-8.34,0.37,4.73,-0.34,-0.22,0.14,-63.61,-21.86,-7.4748017.00,-9.22,1.77,5.73,-0.19,-0.15,-0.26,-63.61,-21.86,-7.4748069.00,-8.24,1.31,5.14,-0.05,0.11,-0.29,-63.26,-21.86,-8.4948121.00,-7.82,0.80,4.71,0.12,0.17,0.03,-63.26,-21.86,-8.4948173.00,-8.74,0.96,5.41,-0.06,-0.01,0.30,-62.73,-24.51,-9.0048362.00,-8.50,0.42,4.81,-0.02,0.08,0.25,-64.66,-22.92,-6.7948414.00,-8.81,1.33,4.27,0.01,0.00,0.06,-64.13,-23.80,-6.6248466.00,-8.35,1.07,4.29,-0.13,0.07,-0.39,-64.13,-23.80,-6.6248518.00,-8.01,1.07,5.70,-0.13,0.06,0.09,-64.13,-23.80,-6.6248570.00,-8.37,0.72,4.57,-0.18,0.03,0.24,-64.31,-23.62,-7.1348622.00,-9.06,1.55,5.26,-0.05,-0.03,-0.05,-64.31,-23.62,-7.1348674.00,-8.57,1.30,4.10,-0.16,0.12,-0.08,-64.84,-21.68,-5.9448726.00,-8.64,0.49,4.70,-0.11,-0.04,0.04,-64.84,-21.68,-5.9448778.00,-8.34,2.00,4.49,-0.40,-0.52,0.12,-64.84,-21.68,-5.9448830.00,-7.32,0.88,5.56,-0.17,-0.34,-0.15,-65.54,-22.04,-5.9448882.00,-7.32,0.57,6.23,0.04,-0.09,-0.05,-65.54,-22.04,-5.9448934.00,-9.04,1.10,4.87,0.31,0.13,-0.01,-64.66,-21.16,-8.4948986.00,-8.57,1.08,4.64,0.05,-0.06,-0.06,-64.66,-21.16,-8.4949038.00,-8.02,0.61,5.46,-0.06,-0.08,-0.06,-64.66,-21.16,-8.4949090.00,-7.88,0.79,5.16,-0.05,-0.04,0.04,-64.49,-22.74,-7.9849142.00,-9.00,0.97,5.49,0.09,-0.02,0.27,-64.49,-22.74,-7.9849194.00,-9.11,0.72,5.39,0.28,0.07,-0.04,-63.43,-22.39,-7.6449246.00,-7.59,0.60,4.75,0.17,0.20,-0.48,-63.43,-22.39,-7.6449298.00,-8.32,0.65,5.54,-0.22,0.07,0.10,-63.43,-19.57,-7.9849480.00,-7.79,0.47,4.98,-0.12,-0.04,0.07,-61.85,-22.92,-7.4749532.00,-8.93,1.68,5.13,-0.02,0.01,-0.14,-61.85,-22.92,-7.4749585.00,-8.32,0.49,5.33,-0.02,0.16,-0.33,-64.13,-21.33,-7.6449637.00,-7.63,1.22,5.50,-0.11,0.10,0.30,-64.13,-21.33,-7.6449689.00,-8.54,0.45,5.32,-0.07,0.05,0.25,-65.36,-21.51,-7.8149741.00,-8.26,0.48,4.21,-0.13,0.09,-0.40,-65.36,-21.51,-7.8149793.00,-8.20,1.15,5.23,-0.17,0.03,-0.00,-64.31,-21.51,-7.1349845.00,-8.43,0.37,4.32,-0.15,0.03,0.36,-64.31,-21.51,-7.1349897.00,-8.61,0.21,4.04,-0.01,0.02,0.03,-64.31,-21.51,-7.1349949.00,-8.42,0.58,4.40,-0.17,0.15,-0.39,-65.89,-22.39,-6.2850002.00,-7.84,0.45,5.30,0.02,0.10,0.13,-65.89,-22.39,-6.2850054.00,-8.68,0.69,4.36,-0.13,0.07,0.20,-64.31,-23.27,-6.1150106.00,-8.72,0.74,4.27,-0.10,0.03,-0.04,-64.31,-23.27,-6.1150158.00,-8.50,0.69,5.07,-0.07,0.08,-0.04,-64.31,-23.27,-6.1150210.00,-8.10,0.86,5.06,-0.02,0.08,0.10,-64.84,-21.33,-5.2750262.00,-8.58,0.45,4.68,0.11,-0.03,0.25,-64.84,-21.33,-5.2750314.00,-9.01,0.69,4.52,-0.24,-0.17,0.10,-63.26,-22.57,-6.1150366.00,-9.03,1.00,4.38,-0.22,-0.09,-0.25,-63.26,-22.57,-6.1150419.00,-8.54,0.43,4.60,-0.01,0.11,-0.13,-63.26,-22.57,-6.1150641.00,-8.08,0.93,4.67,-0.06,0.11,0.08,-63.96,-22.92,-6.4550693.00,-8.58,-0.04,5.14,-0.12,0.01,0.17,-64.13,-22.04,-6.2850745.00,-8.93,1.14,4.18,-0.02,0.02,0.09,-64.13,-22.04,-6.2850798.00,-8.97,0.91,5.05,-0.18,0.08,-0.10,-64.84,-23.45,-5.9450850.00,-9.13,1.02,4.34,-0.31,0.14,0.18,-64.84,-23.45,-5.9450902.00,-8.56,0.44,5.06,-0.16,-0.12,0.31,-64.84,-23.45,-5.9450954.00,-8.81,0.05,3.16,-0.04,0.05,0.05,-64.49,-24.86,-5.9451007.00,-9.35,2.46,5.63,-0.47,0.07,-0.33,-64.49,-24.86,-5.9451059.00,-8.14,0.50,4.08,-0.11,0.33,-0.21,-63.96,-22.21,-5.4451111.00,-8.60,0.89,3.76,0.12,-0.17,0.20,-63.96,-22.21,-5.4451163.00,-7.46,0.02,6.30,-0.22,-0.78,0.03,-63.96,-22.21,-5.4451216.00,-8.97,1.59,3.11,-0.03,0.22,0.14,-63.26,-23.62,-6.4551268.00,-7.62,0.36,4.01,-0.08,0.11,0.14,-63.26,-23.62,-6.4551320.00,-8.96,0.18,4.45,-0.14,-0.66,-0.19,-65.01,-22.57,-5.7751373.00,-6.67,-0.29,6.83,-0.45,-1.20,-0.43,-65.01,-22.57,-5.7751425.00,-7.20,-0.10,6.32,0.16,0.77,0.03,-65.01,-22.57,-5.7751477.00,-9.75,1.02,4.15,0.19,-0.11,-0.11,-63.43,-21.68,-9.6851529.00,-9.64,-0.14,5.68,-0.03,-0.62,-0.18,-63.43,-21.68,-9.6851582.00,-6.90,0.72,5.65,-0.29,-0.11,-0.06,-63.78,-20.63,-10.0251805.00,-8.10,-0.34,5.48,0.12,-0.09,0.02,-62.90,-20.45,-10.5351857.00,-8.93,0.47,3.69,0.03,0.10,-0.05,-65.72,-22.21,-8.4951909.00,-8.03,-0.61,4.31,0.26,0.18,-0.40,-65.72,-22.21,-8.4951962.00,-7.68,-2.00,5.36,-0.03,0.03,-0.41,-65.01,-21.86,-7.4752014.00,-8.69,0.82,4.89,-0.27,0.00,0.14,-65.01,-21.86,-7.4752066.00,-8.45,0.04,5.09,-0.24,-0.02,0.24,-63.61,-21.16,-7.4752119.00,-8.33,0.57,4.88,0.01,0.16,-0.27,-63.61,-21.16,-7.4752171.00,-8.05,0.43,5.20,-0.07,0.09,-0.13,-63.61,-21.16,-7.4752223.00,-8.65,0.90,4.59,-0.23,-0.08,0.53,-63.43,-20.27,-7.9852276.00,-8.93,0.63,4.60,0.16,0.04,0.05,-63.43,-20.27,-7.9852328.00,-8.27,0.02,4.56,0.13,0.15,-0.37,-64.31,-21.16,-7.8152380.00,-8.10,-0.87,5.01,-0.22,0.02,0.06,-64.31,-21.16,-7.8152433.00,-9.03,1.01,4.44,-0.02,0.04,0.40,-64.31,-21.16,-7.8152485.00,-8.93,0.83,4.90,-0.09,0.02,0.00,-64.49,-21.68,-6.9652538.00,-8.37,0.27,4.73,-0.13,0.16,-0.16,-64.49,-21.68,-6.9652590.00,-8.41,-0.97,3.59,0.17,-0.04,0.00,-65.01,-21.51,-6.4552642.00,-7.43,-0.36,5.00,0.15,-0.63,-0.14,-65.01,-21.51,-6.4552695.00,-8.29,1.32,5.39,0.10,-0.01,0.04,-63.08,-21.68,-8.6652747.00,-7.08,-0.62,5.64,0.12,-0.08,-0.06,-63.08,-21.68,-8.6652974.00,-8.16,-0.25,4.78,-0.10,-0.02,0.51,-65.01,-21.16,-7.1353026.00,-9.10,1.13,4.77,-0.38,-0.28,0.59,-65.01,-21.16,-7.1353079.00,-8.69,-0.47,4.20,-0.09,0.05,-0.29,-64.84,-24.86,-9.6853131.00,-8.73,0.28,5.33,0.06,0.21,-0.65,-64.84,-24.86,-9.6853183.00,-8.49,1.82,5.16,0.01,0.21,-0.02,-65.54,-22.04,-7.9853236.00,-8.64,0.79,5.85,-0.04,-0.10,0.60,-65.54,-22.04,-7.9853288.00,-8.45,-0.71,4.88,-0.26,-0.10,0.08,-65.54,-22.04,-7.9853341.00,-8.62,0.59,4.71,-0.17,0.05,-0.24,-63.61,-23.62,-8.1553393.00,-8.13,-0.24,5.34,-0.26,0.17,-0.62,-63.61,-23.62,-8.1553446.00,-8.07,-0.20,5.03,0.07,0.08,0.36,-64.31,-21.51,-7.1353498.00,-8.74,0.23,5.01,0.28,0.12,0.07,-64.31,-21.51,-7.1353551.00,-8.58,0.45,4.73,0.07,0.06,-0.46,-64.31,-21.51,-7.1353603.00,-8.87,1.52,4.11,-0.16,0.01,0.16,-65.36,-22.92,-5.7753656.00,-8.64,-0.30,3.13,-0.02,0.06,0.32,-65.36,-22.92,-5.7753708.00,-9.22,1.67,3.65,-0.48,-0.51,0.03,-65.01,-23.62,-6.1153760.00,-6.79,-0.74,6.15,-0.27,-0.35,-0.39,-65.01,-23.62,-6.1153813.00,-6.87,-1.88,7.84,0.10,-0.33,-0.27,-65.01,-23.62,-6.1153865.00,-8.38,0.39,5.04,0.60,0.13,0.13,-64.84,-22.39,-7.9853918.00,-8.92,0.98,3.71,-0.00,0.05,0.02,-64.84,-22.39,-7.9854136.00,-7.97,-0.24,4.80,-0.29,0.24,-0.33,-64.13,-23.45,-9.0054188.00,-8.26,0.54,5.34,-0.15,0.01,0.45,-64.13,-23.45,-9.0054241.00,-8.90,1.06,4.66,-0.01,0.06,-0.03,-64.49,-22.39,-7.9854294.00,-8.28,0.57,4.87,0.03,0.18,-0.31,-64.49,-22.39,-7.9854346.00,-8.01,0.69,4.84,-0.09,-0.03,0.27,-64.84,-21.68,-5.6154399.00,-9.08,0.10,5.00,-0.16,-0.28,0.06,-64.84,-21.68,-5.6154452.00,-9.19,1.12,4.13,0.04,-0.17,-0.23,-64.31,-22.21,-6.7954505.00,-6.45,-0.22,6.80,-0.30,-0.54,0.02,-64.31,-22.21,-6.7954557.00,-10.27,-0.33,3.34,0.12,0.55,0.05,-64.31,-22.21,-6.7954610.00,-8.58,0.54,4.08,-0.07,0.05,0.11,-64.49,-21.33,-7.6454663.00,-8.44,1.05,5.55,0.08,0.04,0.25,-64.49,-21.33,-7.6454715.00,-8.69,0.99,5.13,-0.16,0.11,-0.09,-64.66,-24.33,-8.1554768.00,-8.52,-0.72,4.57,-0.03,0.02,-0.14,-64.66,-24.33,-8.1554820.00,-7.42,0.03,5.66,-0.13,-0.07,0.32,-64.13,-23.09,-8.3254873.00,-9.71,0.05,4.97,0.05,0.24,0.31,-64.13,-23.09,-8.3254926.00,-9.76,0.83,5.36,-0.08,0.14,-0.32,-64.13,-23.09,-8.3254979.00,-7.76,-0.30,3.73,-0.17,0.46,-0.60,-64.31,-24.33,-6.4555031.00,-8.67,1.08,4.95,0.03,0.18,0.03,-64.31,-24.33,-6.4555084.00,-8.30,0.22,4.55,-0.01,-0.13,0.46,-63.96,-21.86,-7.4755311.00,-8.79,0.04,4.18,-0.11,0.01,0.41,-63.96,-23.62,-8.1555363.00,-8.88,-0.32,4.90,0.05,0.03,0.04,-64.31,-22.57,-7.4755416.00,-9.14,1.99,5.41,0.10,0.03,0.16,-64.31,-22.57,-7.4755469.00,-8.62,-0.81,4.63,0.03,0.01,-0.15,-65.19,-22.39,-7.3055521.00,-9.38,0.28,3.21,0.20,-0.23,0.28,-65.19,-22.39,-7.3055574.00,-7.42,0.08,5.01,-0.46,-0.81,0.15,-63.26,-22.92,-7.8155627.00,-7.36,0.20,6.62,0.22,0.24,0.11,-63.26,-22.92,-7.8155680.00,-9.24,2.05,4.22,-0.01,0.04,0.38,-63.26,-22.92,-7.8155732.00,-9.40,0.37,4.54,0.02,-0.17,-0.09,-63.96,-23.98,-6.7955785.00,-7.39,0.19,6.09,-0.03,-0.59,-0.60,-63.96,-23.98,-6.7955838.00,-6.96,-0.39,6.26,0.19,-0.00,-0.47,-64.13,-22.39,-9.0055890.00,-9.28,1.26,4.87,-0.05,0.21,0.20,-64.13,-22.39,-9.0055943.00,-8.69,2.26,4.07,-0.05,-0.01,0.21,-63.26,-22.92,-8.8355996.00,-9.30,0.33,4.23,0.17,-0.20,-0.13,-63.26,-22.92,-8.8356048.00,-7.71,-0.64,5.79,-0.24,-0.45,-0.24,-63.26,-22.92,-8.8356101.00,-7.88,-0.45,5.55,0.12,-0.06,-0.07,-63.43,-20.63,-10.3656154.00,-8.33,0.40,4.72,0.12,-0.04,-0.03,-63.43,-20.63,-10.3656207.00,-7.99,-0.07,5.31,-0.15,-0.47,-0.31,-63.43,-20.63,-11.3856259.00,-7.53,-0.50,6.19,-0.07,-0.27,-0.38,-63.43,-20.63,-11.3856312.00,-7.87,-0.47,5.75,0.30,-0.07,-0.36,-63.43,-20.63,-11.3856540.00,-7.60,0.33,6.12,0.04,-0.28,0.33,-62.55,-17.63,-13.2556593.00,-6.88,-1.07,6.58,-0.00,-0.44,0.09,-62.55,-17.63,-13.2556646.00,-7.57,0.53,5.93,0.47,0.05,0.34,-62.55,-17.63,-13.2556699.00,-8.28,1.23,5.20,0.37,0.11,0.15,-62.55,-17.63,-13.2556752.00,-8.69,0.87,5.13,0.01,-0.01,0.11,-63.96,-22.57,-10.8756804.00,-7.99,0.62,5.75,-0.11,-0.04,-0.07,-63.96,-22.57,-10.8756857.00,-8.19,0.86,5.47,-0.21,0.09,-0.04,-62.73,-23.45,-11.0456910.00,-7.62,0.07,5.80,-0.18,0.08,-0.14,-62.73,-23.45,-11.0456963.00,-8.03,0.34,5.56,0.01,0.11,-0.11,-64.31,-22.21,-10.1957016.00,-8.12,0.60,5.34,0.05,0.03,-0.11,-64.31,-22.21,-10.1957069.00,-8.45,0.47,5.32,-0.03,0.03,-0.01,-64.31,-22.21,-10.1957122.00,-8.41,0.74,5.25,0.03,0.07,0.27,-65.19,-22.04,-10.3657174.00,-7.21,0.00,6.73,0.06,0.17,0.15,-65.19,-22.04,-10.3657227.00,-8.45,0.95,3.91,-0.09,0.28,0.20,-63.78,-23.80,-8.3257280.00,-7.90,0.93,4.52,-0.23,0.02,-0.90,-63.78,-23.80,-8.3257333.00,-9.48,-1.32,3.57,-0.14,-0.10,-0.22,-64.13,-22.74,-9.0057386.00,-7.33,0.37,4.53,-0.24,0.32,0.62,-64.13,-22.74,-9.0057439.00,-8.56,1.16,5.72,-0.19,-0.06,0.25,-64.13,-22.74,-9.0057492.00,-7.28,0.16,6.16,0.10,-0.08,0.08,-64.49,-21.33,-9.6857722.00,-8.30,0.33,5.52,-0.14,-0.09,0.29,-64.31,-25.74,-9.1757775.00,-8.47,0.85,5.38,0.09,-0.11,0.20,-64.31,-25.74,-9.1757828.00,-8.93,1.29,5.06,-0.20,-0.02,-0.29,-63.61,-23.98,-9.1757881.00,-8.80,2.31,6.05,0.11,0.09,0.03,-63.61,-23.98,-9.1757934.00,-7.61,-0.94,4.77,0.04,0.14,0.00,-63.61,-23.98,-9.1757987.00,-8.55,-0.08,5.31,-0.13,-0.01,0.15,-65.19,-23.80,-8.3258040.00,-9.36,1.79,5.23,-0.11,0.00,-0.10,-65.19,-23.80,-8.3258093.00,-8.10,0.47,5.08,-0.18,0.06,0.00,-64.49,-22.74,-7.9858146.00,-8.59,0.35,5.00,-0.27,0.05,0.42,-64.49,-22.74,-7.9858199.00,-9.06,0.72,4.55,0.04,0.05,-0.00,-64.49,-22.74,-7.9858252.00,-7.96,0.13,4.98,-0.04,-0.01,-0.15,-64.31,-23.98,-7.4758305.00,-8.39,0.43,5.11,-0.32,0.06,0.34,-64.31,-23.98,-7.4758358.00,-8.44,-0.61,4.08,-0.28,0.10,-0.14,-63.61,-23.27,-7.4758411.00,-8.01,-0.06,5.68,-0.04,-0.02,0.26,-63.61,-23.27,-7.4758463.00,-8.47,-0.06,4.94,0.07,0.02,0.05,-65.19,-23.80,-8.3258516.00,-8.55,0.31,5.08,-0.23,-0.03,-0.33,-65.19,-23.80,-8.3258569.00,-8.88,1.41,4.36,-0.01,0.04,0.06,-65.19,-23.80,-8.3258622.00,-7.91,0.78,5.38,-0.05,0.01,0.40,-63.96,-21.86,-7.4758675.00,-8.29,-0.36,5.64,-0.24,-0.02,0.16,-63.96,-21.86,-7.4758897.00,-8.32,1.16,4.90,-0.36,-0.49,0.10,-63.61,-23.62,-7.4758950.00,-7.98,-0.77,5.87,-0.11,-0.05,-0.11,-63.61,-23.62,-7.4759003.00,-7.58,-0.27,6.37,0.15,0.05,-0.16,-63.61,-23.62,-7.4759056.00,-9.15,0.86,4.09,0.19,0.22,-0.10,-63.61,-23.62,-7.4759109.00,-8.08,0.11,4.95,0.07,-0.01,0.09,-64.66,-23.27,-7.4759162.00,-8.41,0.67,5.22,-0.02,-0.06,0.36,-64.66,-23.27,-7.4759215.00,-8.83,0.24,4.89,-0.12,-0.01,0.10,-64.66,-25.03,-8.4959268.00,-8.32,0.43,4.72,-0.10,0.17,-0.38,-64.66,-25.03,-8.4959321.00,-8.38,1.30,5.27,-0.06,0.15,-0.01,-64.66,-25.03,-8.4959374.00,-8.65,0.55,5.62,-0.16,-0.04,0.50,-65.89,-24.51,-7.6459427.00,-9.03,0.40,3.72,-0.18,0.02,0.07,-65.89,-24.51,-7.6459480.00,-8.16,-0.15,4.09,-0.13,0.19,-0.50,-63.78,-23.45,-7.3059533.00,-7.81,-0.53,4.58,-0.07,0.12,0.08,-63.78,-23.45,-7.3059587.00,-8.88,0.74,4.00,-0.07,0.09,0.17,-65.89,-25.21,-6.6259640.00,-8.98,1.19,4.75,-0.07,0.03,-0.26,-65.89,-25.21,-6.6259693.00,-8.68,-0.02,5.35,-0.19,0.00,-0.04,-65.89,-25.21,-6.6259746.00,-8.97,0.82,4.61,-0.17,0.02,0.42,-65.72,-24.68,-6.7959799.00,-9.10,0.70,4.44,0.00,0.04,-0.03,-65.72,-24.68,-6.7959852.00,-8.47,0.71,4.97,-0.18,0.15,-0.08,-64.13,-23.80,-6.9660082.00,-8.48,0.56,4.46,0.04,0.32,-0.14,-65.72,-24.68,-6.4560135.00,-10.09,1.18,3.35,-0.32,-0.40,0.15,-65.72,-25.74,-6.1160188.00,-8.08,0.80,5.58,-0.30,-0.10,0.18,-65.72,-25.74,-6.1160242.00,-7.59,-1.57,5.77,-0.18,-0.12,-0.08,-65.36,-25.74,-8.1560295.00,-10.77,-0.58,4.39,0.27,0.40,-0.12,-65.36,-25.74,-8.1560348.00,-8.84,0.50,4.72,0.13,-0.00,0.03,-65.19,-25.56,-7.6460402.00,-8.03,-0.24,4.67,0.29,0.09,0.19,-65.19,-25.56,-7.6460455.00,-8.35,0.20,4.65,-0.06,-0.11,0.24,-65.19,-25.56,-7.6460508.00,-9.10,0.76,5.02,-0.17,-0.22,0.04,-65.19,-26.62,-7.9860561.00,-8.17,0.88,5.16,0.14,0.10,-0.71,-65.19,-26.62,-7.9860614.00,-8.31,0.90,3.72,-0.18,0.14,0.05,-65.19,-23.45,-8.6660668.00,-9.47,0.18,5.38,0.19,0.19,-0.10,-65.19,-23.45,-8.6660721.00,-7.82,0.82,4.95,0.01,0.46,-0.72,-65.01,-24.68,-7.4760774.00,-8.06,-0.65,4.56,-0.23,-0.01,-0.30,-65.01,-24.68,-7.4760827.00,-9.99,1.23,3.60,-0.22,-0.25,0.65,-65.72,-23.27,-6.7960881.00,-8.04,0.89,4.46,-0.28,-0.35,0.96,-65.72,-23.27,-6.7960934.00,-8.62,-0.78,4.92,-0.16,-0.01,0.20,-65.72,-23.27,-6.7960987.00,-8.22,-1.13,3.37,-0.13,0.31,-0.51,-65.01,-26.44,-8.8361041.00,-8.59,1.03,4.87,-0.06,0.13,-0.00,-65.01,-26.44,-8.8361271.00,-8.40,-0.25,4.55,-0.07,0.04,0.09,-65.19,-27.33,-6.9661324.00,-8.66,-0.06,3.76,-0.11,-0.10,0.26,-64.49,-26.97,-6.9661377.00,-9.58,1.21,4.32,-0.07,-0.23,0.10,-64.49,-26.97,-6.9661431.00,-8.62,-0.07,4.28,-0.06,0.12,-0.43,-64.49,-26.97,-6.9661484.00,-8.58,-0.17,3.86,0.00,0.15,-0.00,-63.78,-26.27,-7.9861537.00,-8.51,0.39,4.61,-0.18,0.13,-0.01,-63.78,-26.27,-7.9861590.00,-8.77,-0.50,4.18,-0.02,0.08,0.03,-65.72,-25.74,-8.8361644.00,-8.53,0.09,4.36,0.03,-0.04,0.45,-65.72,-25.74,-8.8361697.00,-8.72,0.57,4.30,-0.13,0.06,0.09,-65.72,-25.74,-8.8361750.00,-8.17,-0.80,3.47,-0.23,0.11,-0.38,-64.66,-26.80,-7.8161804.00,-8.72,-0.56,4.60,-0.25,0.03,-0.11,-64.66,-26.80,-7.8161857.00,-9.14,0.77,3.65,-0.36,-0.05,0.43,-63.61,-26.80,-7.4761910.00,-9.13,0.59,4.13,-0.15,0.08,0.02,-63.61,-26.80,-7.4761964.00,-8.58,0.12,4.13,-0.27,0.16,-0.16,-63.61,-26.80,-7.4762017.00,-8.65,-0.76,4.62,-0.07,0.02,0.19,-65.01,-26.44,-7.4762070.00,-8.92,0.44,3.63,-0.03,0.02,0.23,-65.01,-26.44,-7.4762124.00,-9.05,0.87,3.96,-0.07,0.05,-0.01,-64.84,-26.62,-7.6462177.00,-8.56,0.82,4.28,-0.30,0.14,0.06,-64.84,-26.62,-7.6462230.00,-8.72,-1.01,4.02,0.15,-0.04,0.17,-65.36,-27.50,-7.4762284.00,-8.46,0.37,2.89,0.09,-0.12,0.15,-65.36,-27.50,-7.4762464.00,-8.33,0.29,3.91,-0.03,0.04,0.21,-65.19,-27.68,-8.6662518.00,-9.29,0.19,4.79,-0.33,-0.20,0.49,-63.26,-25.74,-8.1562571.00,-8.93,0.52,4.20,0.07,0.01,0.07,-63.26,-25.74,-8.1562625.00,-9.41,1.12,4.10,-0.16,0.01,-0.04,-65.54,-27.33,-8.3262678.00,-9.12,0.18,5.28,-0.12,0.22,-0.12,-65.54,-27.33,-8.3262731.00,-8.73,1.79,3.49,-0.47,0.11,0.06,-65.01,-27.15,-7.4762785.00,-8.39,-0.28,3.69,-0.15,-0.02,0.25,-65.01,-27.15,-7.4762838.00,-8.94,-0.07,3.88,0.01,-0.14,0.07,-65.01,-27.15,-7.4762892.00,-8.70,0.00,3.67,-0.01,0.09,-0.17,-64.66,-28.91,-7.8162945.00,-8.90,0.69,3.84,-0.37,0.32,-0.18,-64.66,-28.91,-7.8162999.00,-8.79,-0.25,3.68,0.04,-0.14,-0.12,-65.01,-26.44,-8.1563052.00,-9.83,0.37,2.78,0.48,-1.43,0.07,-65.01,-26.44,-8.1563106.00,-8.54,-1.41,8.46,0.68,-1.49,-0.04,-63.96,-26.09,-12.5763159.00,-7.88,-0.13,8.52,0.95,-1.11,-0.16,-63.96,-26.09,-12.5763213.00,-5.15,-1.46,6.91,0.95,-0.70,-1.49,-60.62,-25.92,-16.4863266.00,-4.02,-0.47,4.96,1.23,-0.10,-1.63,-60.62,-25.92,-16.4863319.00,-6.59,-1.40,5.63,1.71,0.43,-1.72,-60.62,-25.92,-16.4863373.00,-7.52,1.78,5.48,1.02,-0.15,-1.00,-63.08,-20.27,-14.7863426.00,-9.10,0.89,4.65,1.08,0.24,-0.04,-63.08,-20.27,-14.7863653.00,-9.37,1.67,4.30,0.44,0.31,0.18,-64.84,-19.57,-10.3663707.00,-7.72,0.26,5.64,0.17,0.00,0.02,-65.72,-21.16,-10.8763760.00,-8.55,0.57,5.68,0.15,0.11,-0.07,-65.72,-21.16,-10.8763814.00,-8.69,1.81,4.87,-0.00,0.04,0.08,-65.72,-21.16,-10.8763868.00,-7.81,0.01,5.10,-0.05,0.07,0.01,-64.66,-19.75,-9.1763921.00,-8.18,1.16,5.83,0.11,-0.15,0.42,-64.66,-19.75,-9.1763975.00,-9.10,1.13,5.30,0.07,-0.08,-0.05,-64.31,-21.86,-10.1964028.00,-6.94,0.46,5.40,0.03,0.54,-1.54,-64.31,-21.86,-10.1964082.00,-7.69,0.88,4.24,-0.02,0.37,-0.19,-64.31,-21.86,-10.1964135.00,-7.49,-0.33,4.99,-0.03,-0.14,0.45,-64.84,-16.75,-8.6664189.00,-8.83,0.78,5.92,-0.06,-0.29,0.42,-64.84,-16.75,-8.6664242.00,-8.61,0.64,4.96,-0.36,-0.06,0.05,-64.49,-18.16,-8.3264296.00,-7.95,-0.37,5.27,-0.05,0.07,0.02,-64.49,-18.16,-8.3264350.00,-8.54,0.17,5.24,0.11,0.15,-0.02,-65.01,-19.75,-7.8164403.00,-8.18,-0.05,4.58,0.02,0.22,-0.26,-65.01,-19.75,-7.8164457.00,-7.85,-0.08,4.60,-0.06,0.01,0.02,-65.01,-19.75,-7.8164510.00,-8.29,-0.42,5.37,-0.37,-0.30,0.31,-65.89,-17.45,-7.6464564.00,-8.77,1.51,4.71,-0.13,-0.06,0.04,-65.89,-17.45,-7.6464793.00,-8.36,-0.09,5.18,-0.53,-0.06,0.28,-63.78,-17.81,-6.9664847.00,-9.08,1.64,4.04,-0.23,0.07,0.40,-63.78,-17.81,-6.9664901.00,-8.69,0.61,5.04,0.05,0.04,0.20,-63.26,-18.69,-7.1364955.00,-7.99,0.33,5.84,0.04,0.02,-0.00,-63.26,-18.69,-7.1365008.00,-8.78,0.33,4.27,-0.04,0.06,0.03,-65.36,-18.69,-7.1365062.00,-8.86,0.44,4.54,-0.07,0.15,-0.32,-65.36,-18.69,-7.1365116.00,-8.31,0.41,5.09,-0.33,0.26,0.02,-66.42,-17.63,-6.1165170.00,-8.34,0.34,4.78,0.09,-0.01,0.25,-66.42,-17.63,-6.1165223.00,-8.70,-0.26,4.31,-0.12,-0.08,0.17,-66.42,-17.63,-6.1165277.00,-9.01,2.29,5.52,-0.11,-0.00,0.11,-65.72,-19.04,-5.1065331.00,-8.57,0.61,3.95,-0.09,0.20,-0.05,-65.72,-19.04,-5.1065385.00,-9.38,0.21,3.58,0.06,-0.03,0.12,-65.01,-18.69,-7.1365438.00,-7.48,-0.06,6.23,-0.25,0.04,0.00,-65.01,-18.69,-7.1365492.00,-8.89,1.27,3.27,-0.15,0.30,0.27,-66.24,-17.45,-5.2765547.00,-8.81,0.97,3.52,-0.22,0.09,-0.07,-66.24,-17.45,-5.2765605.00,-8.82,0.03,3.69,-0.15,-0.71,-0.07,-64.66,-17.63,-6.1165656.00,-7.56,-0.61,5.77,-0.18,-0.44,-0.10,-64.66,-17.63,-6.1165707.00,-8.01,-0.09,5.29,-0.02,-0.07,0.01,-64.66,-17.63,-6.1165884.00,-8.21,-0.56,5.03,0.35,0.06,-0.11,-63.26,-16.92,-7.4765935.00,-8.61,-0.16,4.74,0.46,0.22,-0.22,-63.26,-16.92,-7.4765986.00,-8.45,0.13,4.76,0.31,0.08,-0.15,-65.19,-17.10,-7.9866037.00,-8.42,-0.42,4.89,0.35,0.03,-0.02,-65.19,-17.10,-7.9866088.00,-8.29,-0.06,4.87,0.14,-0.11,0.07,-65.19,-17.10,-7.9866139.00,-8.08,0.36,5.32,0.42,-0.19,0.08,-64.66,-17.98,-6.7966190.00,-8.36,0.46,4.95,0.23,-0.10,0.05,-64.66,-17.98,-6.7966241.00,-8.37,0.20,4.77,0.25,-0.16,0.04,-65.01,-18.33,-7.4766293.00,-7.93,0.73,4.79,0.57,-0.22,0.31,-65.01,-18.33,-7.4766344.00,-8.17,0.65,5.32,1.49,-0.25,0.47,-65.01,-18.33,-7.4766395.00,-7.63,2.24,4.87,1.60,-0.17,0.44,-64.13,-22.04,-9.0066446.00,-8.07,1.72,4.71,0.93,-0.04,0.24,-64.13,-22.04,-9.0066497.00,-7.87,2.64,6.14,1.09,-0.15,0.77,-63.78,-26.27,-7.6466548.00,-8.96,5.05,6.76,-0.36,0.06,-0.33,-63.78,-26.27,-7.6466600.00,-7.92,1.17,5.22,-1.64,0.64,-0.66,-63.78,-26.27,-7.6466651.00,-7.73,0.49,4.85,-1.05,0.02,-0.14,-64.49,-23.09,-8.3266702.00,-6.99,0.68,5.41,-0.71,-0.32,0.40,-64.49,-23.09,-8.3266753.00,-8.95,1.31,6.03,0.40,-0.15,0.03,-65.19,-23.45,-9.3466804.00,-9.43,1.62,4.55,-0.29,0.33,-0.19,-65.19,-23.45,-9.3467026.00,-8.72,0.90,5.08,0.22,-0.14,0.11,-65.72,-19.75,-7.8167078.00,-7.67,0.68,5.40,-0.07,-0.18,0.37,-65.72,-19.75,-7.8167129.00,-8.04,0.58,5.96,0.19,-0.08,0.60,-63.96,-22.57,-9.5167180.00,-8.72,1.20,4.66,-0.24,0.29,-0.21,-63.96,-22.57,-9.5167231.00,-7.69,0.11,4.25,-0.15,0.07,-0.45,-64.49,-20.63,-6.9667282.00,-7.19,0.33,5.18,-0.17,-0.14,0.10,-64.49,-20.63,-6.9667334.00,-9.19,0.14,5.73,-0.30,-0.28,0.54,-64.49,-20.63,-6.9667385.00,-9.09,1.44,4.17,-0.08,0.11,0.22,-63.78,-22.39,-7.3067436.00,-8.18,1.61,4.92,0.35,0.34,-0.36,-63.78,-22.39,-7.3067487.00,-7.08,0.13,6.46,0.62,0.08,-0.72,-63.61,-20.80,-8.8367539.00,-8.79,1.06,4.36,-0.11,-0.03,0.09,-63.61,-20.80,-8.8367590.00,-8.78,1.02,4.20,-0.55,0.11,0.07,-63.61,-20.80,-8.8367641.00,-7.93,0.03,4.97,-0.31,0.15,0.15,-65.19,-21.33,-6.2867692.00,-8.10,0.38,4.79,0.04,-0.05,0.21,-65.19,-21.33,-6.2867744.00,-8.69,0.95,4.41,-0.04,-0.05,0.05,-65.19,-21.68,-7.6467795.00,-8.41,0.68,4.82,-0.07,0.15,-0.41,-65.19,-21.68,-7.6467846.00,-8.02,0.57,5.09,-0.13,0.16,-0.03,-65.19,-21.68,-7.6467898.00,-8.55,0.66,5.10,-0.08,0.04,0.33,-65.01,-19.39,-6.7967949.00,-8.83,0.72,4.11,0.11,0.06,0.04,-65.01,-19.39,-6.7968179.00,-8.21,0.72,4.69,-0.10,-0.52,0.03,-64.49,-19.57,-5.2768231.00,-7.76,-0.10,5.55,-0.33,-0.04,-0.00,-64.49,-19.57,-5.2768282.00,-8.44,0.33,4.76,-0.07,0.07,0.11,-64.49,-19.92,-9.3468333.00,-8.07,0.37,5.16,-0.18,0.16,0.07,-64.49,-19.92,-9.3468385.00,-8.64,0.29,5.07,-0.09,0.15,0.21,-64.66,-19.75,-6.1168436.00,-9.00,0.66,5.29,0.11,-0.05,0.01,-64.66,-19.75,-6.1168487.00,-9.17,1.08,5.16,0.03,0.01,0.04,-65.36,-20.45,-6.4568539.00,-7.69,0.38,4.39,0.13,0.24,-0.34,-65.36,-20.45,-6.4568590.00,-8.50,1.70,5.55,-0.11,-0.03,-0.10,-65.36,-20.45,-6.4568641.00,-10.39,0.64,3.40,0.13,-0.20,0.07,-64.66,-20.45,-6.7968693.00,-7.12,-0.49,4.88,-0.16,0.04,-0.04,-64.66,-20.45,-6.7968744.00,-9.39,1.48,4.29,-0.30,0.22,0.22,-65.89,-20.63,-6.6268795.00,-6.98,-0.81,6.43,-0.04,-0.26,0.14,-65.89,-20.63,-6.6268846.00,-7.53,-0.56,6.50,0.38,-0.12,0.00,-65.89,-20.63,-6.6268898.00,-8.97,1.36,4.96,0.30,0.17,0.04,-66.42,-19.75,-8.8368950.00,-8.78,0.18,4.10,-0.03,0.15,-0.12,-66.42,-19.75,-8.8369001.00,-8.09,0.17,4.92,0.08,0.03,0.15,-64.49,-18.51,-6.9669052.00,-7.88,0.48,5.38,0.02,-0.10,0.26,-64.49,-18.51,-6.9669104.00,-8.71,0.21,5.24,0.02,-0.13,0.15,-64.49,-18.51,-6.9669327.00,-8.74,0.19,4.81,-0.08,0.05,-0.04,-64.31,-20.10,-6.7969379.00,-8.09,0.13,4.79,-0.10,0.08,-0.16,-65.89,-21.33,-6.2869430.00,-7.57,0.05,5.21,-0.16,0.03,0.23,-65.89,-21.33,-6.2869482.00,-8.54,-0.01,4.29,-0.17,0.07,0.03,-65.89,-21.33,-6.2869533.00,-8.72,1.32,4.42,-0.21,0.17,-0.00,-66.07,-20.10,-7.8169585.00,-7.51,0.53,3.75,-0.23,0.12,0.40,-66.07,-20.10,-7.8169636.00,-9.00,-0.06,4.72,-0.08,-0.11,0.40,-65.54,-21.33,-6.6269688.00,-8.83,-0.84,3.83,0.18,0.03,0.04,-65.54,-21.33,-6.6269739.00,-11.27,-0.20,4.60,0.50,0.65,-1.50,-66.77,-20.10,-7.1369791.00,-7.76,-0.44,3.73,0.13,0.63,-0.64,-66.77,-20.10,-7.1369842.00,-7.86,-0.20,3.47,-0.14,-0.17,0.36,-66.77,-20.10,-7.1369894.00,-9.56,-0.15,6.19,0.05,-0.57,0.50,-67.12,-18.69,-3.7469946.00,-8.84,0.34,4.22,-0.43,-0.08,0.05,-67.12,-18.69,-3.7469997.00,-8.56,0.45,4.37,-0.21,0.19,0.06,-65.72,-21.51,-7.1370049.00,-8.54,-0.47,5.68,-0.15,0.03,0.23,-65.72,-21.51,-7.1370100.00,-8.53,-0.12,4.46,-0.05,0.01,0.10,-65.72,-21.51,-7.1370152.00,-8.68,0.28,4.40,-0.05,0.01,0.06,-65.36,-21.16,-5.4470203.00,-8.75,0.56,4.44,-0.07,0.11,-0.05,-65.36,-21.16,-5.4470255.00,-8.12,-0.91,4.60,0.12,0.07,-0.05,-66.07,-20.80,-5.1070307.00,-8.76,0.83,5.55,-0.02,-0.19,0.41,-66.07,-20.80,-5.1070536.00,-8.83,0.12,4.60,-0.02,0.04,0.17,-65.36,-20.80,-5.4470588.00,-9.06,0.76,4.55,-0.13,0.15,-0.14,-65.36,-20.80,-5.4470639.00,-8.38,0.63,3.92,-0.20,0.18,0.05,-64.49,-18.51,-5.2770691.00,-7.93,-0.77,4.17,-0.06,0.03,0.33,-64.49,-18.51,-5.2770743.00,-8.87,-0.10,4.10,-0.03,0.00,0.13,-65.72,-20.45,-3.4070794.00,-8.42,-0.17,4.70,-0.22,0.11,-0.47,-65.72,-20.45,-3.4070846.00,-8.80,0.32,5.07,-0.22,0.02,-0.15,-65.72,-20.45,-3.4070898.00,-8.75,0.17,4.28,-0.03,-0.06,0.46,-65.54,-20.63,-5.6170950.00,-8.79,-0.44,4.27,-0.21,0.04,0.04,-65.54,-20.63,-5.6171001.00,-8.82,0.94,3.98,-0.26,0.14,-0.12,-66.59,-20.63,-4.5971053.00,-8.49,-0.43,3.93,-0.22,0.19,-0.21,-66.59,-20.63,-4.5971105.00,-7.54,-1.20,3.98,0.03,0.02,0.16,-66.59,-20.63,-4.5971156.00,-9.49,-0.05,4.94,-0.24,-0.20,0.65,-65.36,-20.45,-2.7271208.00,-9.69,0.95,4.53,0.05,-0.20,0.39,-65.36,-20.45,-2.7271259.00,-8.90,-2.34,4.20,-0.02,0.20,-0.65,-64.66,-22.57,-4.0871311.00,-7.91,-1.94,3.44,-0.12,0.43,-0.73,-64.66,-22.57,-4.0871363.00,-8.02,-2.75,2.80,0.03,0.20,-0.11,-64.66,-22.57,-4.0871415.00,-9.04,-0.12,4.29,0.14,0.10,0.02,-65.89,-19.92,-3.9171466.00,-8.66,-0.25,4.07,0.05,0.15,-0.19,-65.89,-19.92,-3.9171688.00,-11.21,-1.08,6.30,0.27,0.46,0.08,-65.19,-20.63,-6.6271740.00,-9.00,-0.66,4.28,-0.21,0.19,-0.09,-64.31,-20.80,-5.1071792.00,-9.83,0.38,3.08,0.26,-0.17,0.22,-64.31,-20.80,-5.1071843.00,-8.52,0.58,4.05,-0.03,-1.81,0.20,-64.31,-20.80,-5.1071895.00,-7.58,-2.53,6.49,0.04,-1.21,0.55,-63.78,-21.68,-11.0471947.00,-7.99,-1.21,6.62,0.61,-1.42,1.29,-63.78,-21.68,-11.0471998.00,-7.16,0.60,9.29,2.84,-2.10,3.01,-57.11,-31.56,-18.1772050.00,-6.82,7.58,10.88,2.82,-1.02,2.79,-57.11,-31.56,-18.1772102.00,-4.98,5.87,5.18,0.63,-0.02,0.76,-57.11,-31.56,-18.1772154.00,-4.65,6.11,4.87,0.07,0.36,-0.20,-52.36,-44.43,-15.6372205.00,-4.26,4.35,4.44,-0.20,0.66,-0.76,-52.36,-44.43,-15.6372257.00,-4.80,2.25,6.18,0.09,1.01,-0.69,-56.40,-39.67,-11.3872309.00,-6.03,3.52,5.29,0.77,0.84,0.10,-56.40,-39.67,-11.3872361.00,-4.50,5.12,5.41,0.96,0.34,0.28,-56.40,-39.67,-11.3872412.00,-5.10,5.13,5.79,0.99,0.26,0.93,-57.81,-43.19,-6.2872464.00,-7.30,4.47,6.56,3.15,0.27,1.23,-57.81,-43.19,-6.2872516.00,-7.71,8.57,4.15,1.56,0.52,-1.07,-53.94,-48.48,1.5372568.00,-6.61,6.98,4.96,-0.37,0.56,-1.29,-53.94,-48.48,1.5372619.00,-7.77,18.02,0.83,-4.38,0.64,-4.32,-63.61,-38.08,-2.7272849.00,-5.18,-3.40,-5.38,-4.38,3.30,1.16,-57.98,2.82,23.7872902.00,-3.32,1.54,-9.17,-2.99,3.30,2.91,-45.86,-21.33,40.5972954.00,-2.87,4.37,-11.31,-2.41,2.82,2.98,-45.86,-21.33,40.5973005.00,-2.76,6.80,-11.36,-0.04,0.38,1.54,-31.10,-35.44,42.6373057.00,-2.27,3.21,-9.02,0.29,0.45,-0.40,-31.10,-35.44,42.6373109.00,-2.10,1.88,-10.10,0.74,0.46,-0.35,-31.10,-35.44,42.6373161.00,-2.41,2.10,-9.46,2.24,1.04,-0.16,-29.52,-33.50,43.8273213.00,-1.45,0.86,-10.97,2.11,1.34,-0.44,-29.52,-33.50,43.8273265.00,-1.15,-0.97,-10.64,1.31,0.32,-0.37,-22.67,-20.63,48.4173317.00,-0.92,-1.23,-8.99,0.49,0.15,-0.24,-22.67,-20.63,48.4173369.00,0.19,-2.77,-10.30,0.69,0.58,-0.26,-22.67,-20.63,48.4173421.00,-0.91,-1.72,-10.00,0.71,0.64,0.34,-20.73,-15.87,48.5873473.00,-0.28,-1.05,-10.12,0.79,0.76,0.20,-20.73,-15.87,48.5873525.00,0.23,-2.68,-10.08,1.26,0.47,-0.30,-16.87,-10.58,48.5873577.00,0.57,-4.48,-9.20,0.70,0.71,-0.29,-16.87,-10.58,48.5873629.00,0.64,-4.22,-11.01,0.87,0.63,0.16,-13.18,-5.82,47.3973681.00,0.54,-4.51,-9.81,0.74,0.02,0.16,-13.18,-5.82,47.3973733.00,0.43,-4.02,-7.36,0.39,-0.16,0.20,-13.18,-5.82,47.3973785.00,0.54,-4.29,-9.23,-0.93,0.17,0.07,-13.00,-3.17,47.2274014.00,0.64,-2.67,-10.64,-0.45,0.09,-0.31,-15.64,-11.81,46.7174066.00,0.76,-2.54,-9.71,-0.82,0.19,-0.39,-15.64,-11.81,46.7174118.00,0.96,-1.75,-11.11,-1.03,-0.03,0.15,-13.88,-18.16,47.7374170.00,0.82,-1.20,-7.58,-1.82,-0.02,-0.00,-13.88,-18.16,47.7374222.00,0.62,0.45,-10.20,-1.46,-0.17,-0.09,-13.88,-18.16,47.7374274.00,0.31,0.18,-10.17,-0.08,-0.26,-0.37,-15.64,-25.21,44.6774326.00,0.25,0.64,-10.05,0.01,0.07,-0.09,-15.64,-25.21,44.6774378.00,0.38,0.71,-10.42,0.74,-0.02,-0.12,-16.69,-25.56,45.6974430.00,0.39,-0.16,-10.26,1.46,-0.09,-0.03,-16.69,-25.56,45.6974483.00,0.14,-0.36,-10.23,-0.37,-0.17,0.06,-16.69,-25.56,45.6974534.00,-0.92,-0.42,-8.85,-0.30,-0.32,0.05,-15.81,-22.21,45.8674586.00,-0.45,0.17,-10.02,0.11,-0.01,-0.08,-15.81,-22.21,45.8674638.00,0.09,-0.02,-10.19,-0.00,-0.00,0.00,-17.22,-23.62,46.5474691.00,0.16,-0.03,-10.17,-0.00,0.00,0.00,-17.22,-23.62,46.5474743.00,0.16,-0.03,-10.20,-0.00,-0.00,0.00,-17.22,-23.62,46.5474795.00,0.17,-0.02,-10.18,-0.00,0.00,0.00,-15.46,-23.27,45.8674847.00,0.16,-0.03,-10.18,-0.00,0.00,0.00,-15.46,-23.27,45.8674899.00,0.14,-0.02,-10.19,-0.00,0.00,0.00,-18.80,-24.51,47.0574951.00,0.17,-0.03,-10.17,-0.00,0.00,0.00,-18.80,-24.51,47.0575174.00,0.17,-0.02,-10.21,-0.00,-0.00,0.00,-17.04,-23.80,46.3775226.00,0.16,-0.04,-10.18,-0.00,-0.00,0.00,-17.04,-23.80,46.3775278.00,0.16,-0.03,-10.19,-0.00,0.00,0.00,-17.40,-23.80,46.3775330.00,0.16,-0.03,-10.18,-0.00,0.00,0.00,-17.40,-23.80,46.3775383.00,0.17,-0.03,-10.20,-0.00,0.00,0.00,-16.87,-23.62,45.8675435.00,0.16,-0.04,-10.20,-0.00,0.00,0.00,-16.87,-23.62,45.8675487.00,0.14,-0.03,-10.19,-0.00,0.00,0.00,-16.87,-23.62,45.8675539.00,0.14,-0.02,-10.21,-0.00,-0.00,0.00,-16.69,-23.80,44.6775591.00,0.18,-0.03,-10.17,-0.00,-0.00,0.00,-16.69,-23.80,44.6775643.00,0.16,-0.03,-10.21,-0.00,-0.00,0.00,-17.40,-23.45,46.0375695.00,0.17,-0.03,-10.19,-0.00,-0.00,0.00,-17.40,-23.45,46.0375748.00,0.16,-0.01,-10.19,-0.00,-0.00,0.00,-17.40,-23.45,46.0375800.00,0.16,-0.04,-10.20,-0.00,-0.00,0.00,-16.69,-23.45,45.3575852.00,0.16,-0.04,-10.20,-0.00,0.00,0.00,-16.69,-23.45,45.3575904.00,0.17,-0.02,-10.19,-0.00,0.00,0.00,-17.57,-24.68,44.5075956.00,0.17,-0.04,-10.18,-0.00,-0.00,0.00,-17.57,-24.68,44.5076009.00,0.17,-0.03,-10.21,-0.00,-0.00,0.00,-17.40,-24.15,45.0176061.00,0.16,-0.03,-10.21,-0.00,0.00,0.00,-17.40,-24.15,45.0176113.00,0.17,-0.03,-10.20,-0.00,0.00,0.00,-17.40,-24.15,45.0176330.00,0.16,-0.01,-10.19,-0.00,-0.00,0.00,-17.40,-23.45,46.0376383.00,0.16,-0.02,-10.21,-0.00,-0.00,0.00,-16.69,-22.39,44.6776435.00,0.15,-0.02,-10.20,-0.00,-0.00,0.00,-16.69,-22.39,44.6776487.00,0.16,-0.03,-10.16,-0.00,-0.00,0.00,-16.69,-22.39,44.6776539.00,0.15,-0.03,-10.19,-0.00,-0.00,0.00,-16.34,-24.86,45.0176591.00,0.16,-0.03,-10.20,-0.00,-0.00,0.00,-16.34,-24.86,45.0176644.00,0.15,-0.03,-10.20,-0.00,-0.00,0.00,-15.64,-24.51,46.0376696.00,0.17,-0.02,-10.20,-0.00,-0.00,0.00,-15.64,-24.51,46.0376748.00,0.16,-0.02,-10.17,-0.00,0.00,0.00,-15.64,-24.51,46.0376800.00,0.16,-0.03,-10.18,-0.00,0.00,0.00,-16.34,-23.80,46.3776852.00,0.14,-0.01,-10.18,-0.00,0.00,0.00,-16.34,-23.80,46.3776904.00,0.17,-0.02,-10.20,-0.00,-0.00,0.00,-17.22,-22.92,45.8676957.00,0.16,-0.03,-10.19,-0.00,0.00,0.00,-17.22,-22.92,45.8677009.00,0.15,-0.02,-10.20,-0.00,-0.00,0.00,-15.99,-22.74,46.3777061.00,0.15,-0.03,-10.19,-0.00,-0.00,0.00,-15.99,-22.74,46.3777113.00,0.16,-0.02,-10.19,-0.00,-0.00,0.00,-15.99,-22.74,46.3777165.00,0.16,-0.03,-10.20,-0.00,0.00,0.00,-15.29,-23.80,44.3377217.00,0.16,-0.03,-10.20,-0.00,0.00,0.00,-15.29,-23.80,44.3377270.00,0.17,-0.03,-10.20,-0.00,0.00,0.00,-17.04,-24.15,46.0377489.00,0.14,-0.01,-10.26,-0.00,-0.00,0.00,-17.04,-23.45,45.3577542.00,0.14,-0.01,-10.22,-0.00,-0.00,0.00,-16.69,-22.04,46.0377594.00,0.18,-0.02,-10.22,-0.00,0.00,0.00,-16.69,-22.04,46.0377646.00,0.16,-0.04,-10.19,-0.00,0.00,0.00,-16.87,-22.92,46.2077699.00,0.16,-0.02,-10.19,-0.00,0.00,0.00,-16.87,-22.92,46.2077751.00,0.16,-0.03,-10.18,-0.00,0.00,0.00,-16.87,-22.92,46.2077803.00,0.16,-0.02,-10.24,-0.00,0.00,0.00,-16.87,-23.27,46.8877856.00,0.16,-0.04,-10.21,-0.00,0.00,0.00,-16.87,-23.27,46.8877908.00,0.28,-0.15,-8.88,0.00,0.01,0.00,-16.69,-24.51,45.3577960.00,0.17,-0.04,-10.11,-0.00,-0.00,0.00,-16.69,-24.51,45.3578013.00,0.16,-0.01,-10.14,-0.00,0.00,0.00,-15.99,-23.80,46.3778065.00,0.16,-0.02,-10.16,-0.00,-0.00,0.00,-15.99,-23.80,46.3778117.00,0.15,-0.02,-10.18,-0.00,0.00,0.00,-15.99,-23.80,46.3778170.00,0.16,-0.01,-10.22,-0.00,0.00,0.00,-17.75,-24.86,46.0378222.00,0.15,-0.04,-10.20,-0.00,0.00,0.00,-17.75,-24.86,46.0378274.00,0.16,-0.02,-10.19,-0.00,0.00,0.00,-15.99,-22.39,45.0178327.00,0.15,-0.03,-10.18,-0.00,-0.00,0.00,-15.99,-22.39,45.0178379.00,0.15,-0.04,-10.16,-0.00,-0.00,0.00,-15.99,-22.39,45.0178432.00,0.14,-0.03,-10.18,-0.00,-0.00,0.00,-16.17,-24.68,45.1878615.00,0.15,-0.04,-10.18,-0.00,0.00,0.00,-17.40,-23.09,46.0378668.00,0.15,-0.06,-9.52,0.00,0.00,0.00,-16.87,-23.62,46.5478720.00,0.20,-0.07,-9.88,0.00,0.00,0.00,-16.87,-23.62,46.5478772.00,0.12,-0.06,-10.07,-0.00,0.00,0.00,-17.40,-23.45,46.0378825.00,0.11,-0.02,-10.22,-0.00,-0.00,0.00,-17.40,-23.45,46.0378877.00,0.20,-0.03,-10.19,-0.00,0.00,0.00,-17.40,-23.45,46.0378929.00,0.16,-0.01,-10.23,-0.00,0.00,0.00,-15.99,-23.80,46.3778982.00,0.12,-0.03,-10.20,-0.00,0.00,0.00,-15.99,-23.80,46.3779034.00,0.18,-0.04,-10.21,-0.00,0.00,0.00,-18.27,-23.62,47.9079086.00,0.15,-0.02,-10.20,-0.00,0.00,0.00,-18.27,-23.62,47.9079139.00,0.17,-0.03,-10.19,-0.00,0.00,0.00,-18.27,-23.62,47.9079191.00,0.17,-0.02,-10.20,-0.00,-0.00,0.00,-16.17,-23.98,46.2079243.00,0.15,-0.03,-10.18,-0.00,0.00,0.00,-16.17,-23.98,46.2079296.00,0.18,-0.03,-10.19,-0.00,0.00,0.00,-17.75,-23.45,46.0379348.00,0.17,-0.04,-10.20,-0.00,-0.00,0.00,-17.75,-23.45,46.0379401.00,0.16,-0.02,-10.19,-0.00,-0.00,0.00,-17.57,-23.27,45.8679453.00,0.15,-0.04,-10.29,-0.00,-0.00,0.00,-17.57,-23.27,45.8679505.00,0.16,-0.00,-10.22,-0.00,-0.00,0.00,-17.57,-23.27,45.8679558.00,0.17,-0.04,-10.22,-0.00,-0.00,0.00,-17.04,-23.80,45.0179610.00,0.15,-0.01,-10.16,-0.00,-0.00,0.00,-17.04,-23.80,45.0179838.00,0.19,-0.02,-10.17,-0.00,-0.00,0.00,-16.87,-23.27,45.8679891.00,0.18,-0.03,-10.20,-0.00,0.00,0.00,-17.40,-25.56,46.0379943.00,0.12,-0.01,-10.19,-0.00,0.00,0.00,-17.40,-25.56,46.0379996.00,0.20,-0.04,-10.14,-0.00,0.00,0.00,-17.40,-25.56,46.0380048.00,0.16,-0.02,-10.18,-0.00,0.00,0.00,-16.17,-25.03,46.5480101.00,0.17,-0.03,-10.21,-0.00,0.00,0.00,-16.17,-25.03,46.5480153.00,0.18,-0.02,-10.23,-0.00,0.00,0.00,-15.46,-23.98,46.2080206.00,0.20,-0.04,-10.16,-0.00,-0.00,0.00,-15.46,-23.98,46.2080258.00,0.16,-0.00,-10.38,-0.01,-0.00,0.00,-15.46,-23.98,46.2080310.00,0.25,-0.03,-10.20,0.00,0.00,-0.00,-18.45,-22.74,46.0380363.00,0.12,-0.01,-10.19,-0.00,0.00,0.00,-18.45,-22.74,46.0380415.00,0.19,-0.02,-10.18,-0.00,-0.00,0.00,-18.45,-22.74,46.0380468.00,0.20,0.00,-10.27,-0.00,-0.00,0.00,-18.45,-22.74,46.0380520.00,0.16,-0.02,-10.14,-0.00,-0.00,0.00,-18.45,-22.74,46.0380573.00,0.14,-0.05,-10.17,-0.00,-0.00,0.00,-16.69,-22.39,45.0180625.00,0.14,-0.01,-10.17,-0.00,-0.00,0.00,-16.69,-22.39,45.0180678.00,0.19,-0.03,-10.17,-0.00,-0.00,-0.00,-17.04,-24.15,46.7180730.00,0.15,-0.01,-10.18,-0.00,-0.00,-0.00,-17.04,-24.15,46.7180959.00,0.31,0.18,-10.33,0.00,-0.00,-0.32,-15.81,-26.09,46.5481012.00,0.31,-0.31,-10.19,-0.01,-0.00,-0.51,-15.81,-26.09,46.5481064.00,0.43,-0.30,-10.08,-0.25,0.04,-0.43,-17.57,-24.68,45.5281117.00,-0.59,0.65,-9.88,0.12,0.04,-0.71,-17.57,-24.68,45.5281169.00,0.94,-0.03,-10.05,0.14,-0.02,0.37,-18.10,-24.86,46.3781222.00,0.18,0.15,-10.25,0.08,-0.06,0.33,-18.10,-24.86,46.3781274.00,0.17,0.12,-10.04,0.11,-0.01,0.29,-18.63,-23.98,47.2281327.00,0.04,0.51,-10.25,-0.01,-0.00,0.07,-18.63,-23.98,47.2281379.00,0.41,-1.06,-9.66,-0.13,0.02,-0.54,-18.63,-23.98,47.2281432.00,0.18,0.15,-10.38,-0.15,0.07,0.57,-19.68,-25.39,46.5481484.00,0.17,-0.09,-10.08,0.15,-0.03,0.08,-19.68,-25.39,46.5481537.00,0.52,0.04,-10.22,0.07,0.11,0.23,-18.45,-24.51,48.0781590.00,0.24,0.11,-10.19,0.01,0.06,-0.01,-18.45,-24.51,48.0781642.00,0.06,0.30,-10.27,-0.03,0.21,-0.15,-18.45,-24.51,48.0781695.00,0.80,0.19,-10.13,-0.17,0.21,-0.33,-17.57,-24.68,49.2681747.00,0.55,0.35,-10.23,-0.05,-0.01,0.06,-17.57,-24.68,49.2681800.00,0.34,0.34,-10.22,0.05,-0.09,0.02,-16.69,-24.51,49.7781852.00,0.23,0.28,-10.32,0.06,-0.19,0.08,-16.69,-24.51,49.7781905.00,0.23,0.07,-10.21,0.01,-0.05,0.20,-18.10,-25.56,50.4582130.00,0.96,-0.80,-9.54,0.51,0.45,0.00,-17.75,-24.15,49.7782183.00,0.22,-0.24,-10.33,-0.56,-0.74,-0.23,-15.64,-21.33,52.4882235.00,-0.17,-0.03,-10.19,-0.13,-0.11,-0.09,-15.64,-21.33,52.4882288.00,0.38,-0.13,-10.16,-0.04,-0.10,-0.16,-16.69,-23.80,48.7582341.00,0.24,-0.17,-10.15,-0.10,-0.11,-0.12,-16.69,-23.80,48.7582394.00,0.29,-0.05,-10.14,-0.03,-0.14,-0.08,-16.69,-23.80,48.7582446.00,0.32,-0.00,-10.19,-0.04,0.02,0.00,-19.15,-24.15,49.4382499.00,0.12,-0.07,-10.16,0.03,-0.02,0.01,-19.15,-24.15,49.4382551.00,0.01,0.01,-10.23,-0.01,-0.11,-0.02,-19.86,-24.51,48.4182604.00,-0.03,0.01,-10.07,-0.09,-0.04,-0.04,-19.86,-24.51,48.4182657.00,0.08,0.13,-10.08,-0.17,-0.11,-0.05,-18.98,-24.33,47.2282710.00,0.12,0.13,-10.38,0.01,0.05,0.07,-18.98,-24.33,47.2282762.00,0.04,0.04,-10.07,0.38,0.11,0.08,-18.98,-24.33,47.2282815.00,0.06,0.18,-10.34,-0.03,-0.03,0.02,-18.63,-23.98,46.5482868.00,0.11,0.04,-10.25,0.15,0.05,-0.01,-18.63,-23.98,46.5482921.00,0.02,-0.14,-10.10,0.13,-0.00,-0.04,-20.21,-23.45,48.0782973.00,-0.02,-0.04,-10.10,0.00,-0.01,-0.02,-20.21,-23.45,48.0783026.00,0.13,-0.16,-10.22,-0.02,0.10,0.03,-18.27,-22.57,49.6083079.00,0.29,0.05,-10.21,0.04,0.19,0.08,-18.27,-22.57,49.6083297.00,0.60,1.25,-9.74,0.22,-0.03,0.69,-17.40,-27.68,46.7183350.00,1.00,0.33,-9.88,0.39,-0.33,0.64,-17.40,-27.68,46.7183403.00,-0.02,-0.06,-10.11,0.50,-0.78,0.96,-17.40,-27.68,46.7183455.00,0.38,0.00,-10.19,-0.06,-0.06,0.14,-17.75,-23.80,46.7183508.00,0.32,0.03,-10.24,-0.11,-0.07,0.16,-17.75,-23.80,46.7183561.00,0.31,0.46,-10.33,-0.18,-0.10,0.26,-18.45,-26.27,48.0783614.00,0.36,0.36,-10.50,-0.09,-0.04,0.17,-18.45,-26.27,48.0783666.00,0.26,0.00,-10.59,0.86,-0.65,0.41,-18.10,-24.51,48.7583719.00,-0.60,-0.09,-9.40,0.48,-0.41,0.61,-18.10,-24.51,48.7583772.00,-0.65,-0.03,-9.63,-0.09,0.05,0.09,-18.10,-24.51,48.7583825.00,0.38,-0.13,-10.56,-0.13,0.17,-0.17,-19.33,-23.27,50.2883877.00,-0.36,0.06,-10.09,0.09,-0.14,0.52,-19.33,-23.27,50.2883930.00,-0.51,-0.24,-9.94,0.14,-0.01,0.42,-18.27,-23.98,48.9283983.00,-0.47,-0.25,-9.88,-0.03,0.09,0.16,-18.27,-23.98,48.9284035.00,-0.28,0.14,-10.08,0.05,0.12,0.23,-18.10,-22.74,51.8184088.00,-0.35,0.13,-9.87,-0.31,0.17,0.22,-18.10,-22.74,51.8184141.00,0.34,-0.11,-10.35,-0.12,0.05,0.22,-18.10,-22.74,51.8184194.00,-0.17,0.09,-10.19,-0.05,-0.03,0.20,-17.22,-20.80,53.6784246.00,-0.26,0.32,-10.03,-0.14,-0.15,0.11,-17.22,-20.80,53.6784476.00,-0.08,-0.00,-10.20,0.14,0.10,-0.06,-18.63,-21.51,53.3384529.00,-0.05,-0.07,-10.29,-0.04,0.02,-0.02,-16.52,-21.51,52.9984582.00,-0.05,-0.06,-10.28,-0.03,-0.07,0.05,-16.52,-21.51,52.9984635.00,-0.11,-0.15,-10.28,0.02,-0.13,0.19,-16.52,-21.51,52.9984687.00,-0.07,-0.03,-10.17,0.04,-0.04,0.09,-18.45,-21.33,52.8284740.00,-0.25,0.02,-10.16,-0.02,-0.02,0.05,-18.45,-21.33,52.8284793.00,-0.12,-0.16,-10.21,-0.02,-0.02,0.07,-18.27,-21.86,52.6584846.00,-0.25,-0.06,-10.21,-0.16,-0.05,-0.03,-18.27,-21.86,52.6584899.00,-0.11,0.02,-10.29,-0.05,0.06,-0.11,-18.27,-21.86,52.6584952.00,-0.17,0.01,-10.16,0.02,0.01,-0.09,-16.52,-21.86,49.2685005.00,-0.13,-0.09,-10.22,-0.02,0.01,-0.10,-16.52,-21.86,49.2685057.00,-0.14,-0.04,-10.21,0.00,0.04,-0.05,-16.69,-22.74,49.4385110.00,-0.13,0.03,-10.22,-0.03,-0.00,-0.04,-16.69,-22.74,49.4385163.00,-0.07,-0.09,-10.23,0.02,-0.00,-0.03,-16.69,-22.74,49.4385216.00,-0.09,-0.06,-10.21,0.01,-0.00,-0.02,-16.69,-22.74,49.4385269.00,-0.09,-0.07,-10.18,0.03,-0.01,-0.04,-16.69,-22.74,49.4385322.00,-0.08,-0.10,-10.24,0.00,-0.01,-0.02,-16.87,-23.27,47.5685375.00,-0.20,-0.04,-10.16,-0.03,-0.05,-0.04,-16.87,-23.27,47.5685428.00,-0.14,-0.08,-10.17,-0.01,0.01,-0.04,-17.75,-22.04,48.7585652.00,-0.12,-0.09,-10.13,0.01,0.01,-0.03,-17.04,-22.74,50.7985705.00,-0.09,0.02,-10.17,0.01,0.06,-0.01,-17.40,-22.39,50.7985758.00,-0.12,-0.03,-10.18,-0.02,0.10,0.02,-17.40,-22.39,50.7985810.00,0.05,-0.01,-10.30,-0.02,0.02,0.03,-18.45,-23.09,51.8185863.00,0.03,-0.03,-10.17,0.03,0.02,0.04,-18.45,-23.09,51.8185916.00,-0.02,0.01,-10.26,-0.02,-0.12,0.02,-17.22,-23.27,51.6485969.00,-0.27,-0.02,-10.11,0.01,-0.20,0.06,-17.22,-23.27,51.6486022.00,-0.09,0.08,-10.10,-0.16,-0.11,0.08,-17.22,-23.27,51.6486075.00,-0.16,0.08,-10.24,0.05,0.09,-0.03,-16.34,-22.04,51.4786128.00,-0.13,0.02,-10.33,0.09,0.14,-0.07,-16.34,-22.04,51.47