time,ax,ay,az,gx,gy,gz,mx,my,mz51.00,-0.57,6.56,-7.57,-0.14,-0.03,0.02,2.24,-26.09,-57.05103.00,-0.57,6.58,-7.58,-0.14,-0.03,0.02,4.82,-25.57,-57.22154.00,-0.56,6.58,-7.59,-0.14,-0.03,0.02,4.82,-25.57,-57.22207.00,-0.57,6.56,-7.59,-0.14,-0.03,0.02,3.79,-26.26,-57.22257.00,-0.56,6.56,-7.59,-0.14,-0.03,0.02,3.79,-26.26,-57.22308.00,-0.57,6.56,-7.59,-0.14,-0.03,0.02,3.79,-26.26,-57.22361.00,-0.56,6.55,-7.59,-0.14,-0.03,0.02,4.99,-25.74,-57.05412.00,-0.56,6.56,-7.58,-0.14,-0.03,0.02,4.99,-25.74,-57.05462.00,-0.57,6.56,-7.60,-0.14,-0.03,0.02,3.62,-24.71,-58.38514.00,-0.56,6.56,-7.59,-0.14,-0.03,0.02,3.62,-24.71,-58.38565.00,-0.57,6.55,-7.59,-0.14,-0.03,0.02,3.62,-24.71,-58.38616.00,-0.57,6.58,-7.56,-0.14,-0.03,0.02,2.41,-26.26,-58.22668.00,-0.56,6.56,-7.59,-0.14,-0.03,0.02,2.41,-26.26,-58.22719.00,-0.58,6.58,-7.60,-0.14,-0.03,0.02,2.93,-25.40,-57.72770.00,-1.37,8.53,-11.28,0.59,-0.15,0.22,2.93,-25.40,-57.72822.00,-0.16,4.37,-9.69,2.29,0.50,-0.63,4.48,-19.35,-49.57873.00,-1.89,6.49,-5.47,0.27,0.26,-1.07,4.48,-19.35,-49.57923.00,-0.51,10.36,-17.04,-7.20,-0.80,-1.49,4.48,-19.35,-49.57976.00,0.48,8.09,-5.33,-7.23,0.11,0.04,9.30,-25.23,-60.551027.00,0.00,8.77,-5.39,-0.34,-0.13,0.07,9.30,-25.23,-60.551077.00,1.72,10.22,-8.94,1.52,-3.32,1.00,6.72,-34.04,-80.011130.00,1.77,9.52,14.38,6.28,-5.06,3.52,6.72,-34.04,-80.011181.00,1.85,-9.38,-5.65,10.18,0.63,1.70,6.72,-34.04,-80.011231.00,0.39,8.87,-9.04,-1.85,0.06,-2.08,0.86,-19.87,-48.741284.00,0.42,2.55,-9.77,2.27,0.99,0.46,0.86,-19.87,-48.741335.00,0.88,2.90,-9.58,1.70,1.05,0.35,0.86,-19.87,-48.741385.00,-1.11,3.66,-10.58,1.80,0.91,0.09,1.55,-13.65,-43.751438.00,-0.50,-0.96,-7.92,1.77,1.31,0.59,1.55,-13.65,-43.751489.00,-1.19,0.55,-11.55,1.39,1.07,0.28,-2.41,-4.49,-40.921540.00,-1.81,-3.29,-6.96,0.73,0.94,0.24,-2.41,-4.49,-40.921591.00,-2.30,-0.98,-8.24,-3.90,0.38,-0.90,-6.89,-2.76,-42.251642.00,-2.83,4.65,-7.43,-2.27,-0.11,-0.71,-6.89,-2.76,-42.251693.00,-2.38,4.17,-6.28,-4.41,-0.53,-0.55,-6.89,-2.76,-42.251744.00,-1.39,9.51,-12.42,-4.26,-1.02,-0.34,-5.17,-21.77,-59.881795.00,-1.90,4.06,-4.20,-3.14,0.33,-0.09,-5.17,-21.77,-59.881846.00,-1.67,15.62,-0.22,-7.66,-0.16,-1.80,0.86,-30.24,-89.321897.00,-0.01,9.62,0.51,-3.98,0.05,0.02,0.86,-30.24,-89.321948.00,-0.38,11.82,2.75,-1.97,-0.52,-1.05,0.86,-30.24,-89.322000.00,-0.07,13.40,1.40,3.69,-1.29,1.21,4.99,-24.02,-109.952051.00,-2.05,8.58,-4.03,2.09,-2.53,1.62,4.99,-24.02,-109.952101.00,-1.76,10.06,-4.33,-2.81,-0.42,1.72,-7.06,-28.85,-95.642154.00,0.19,15.94,-7.54,7.82,1.37,3.57,-7.06,-28.85,-95.642205.00,-6.51,-3.72,4.52,12.22,3.69,3.41,-23.76,-16.24,-65.202255.00,-5.11,3.02,-7.89,2.97,1.43,0.33,-23.76,-16.24,-65.202308.00,-7.35,3.43,-6.24,0.80,1.65,-0.77,-23.76,-16.24,-65.202359.00,-8.63,2.85,-1.38,-4.03,0.28,-1.55,-28.24,-10.37,-62.542410.00,-5.61,6.43,6.00,-11.43,-4.46,-1.03,-28.24,-10.37,-62.542462.00,-3.06,13.02,-1.54,-11.18,-4.85,-3.77,-17.22,-23.50,-99.472513.00,1.80,8.16,3.24,-12.49,-4.52,-4.92,-17.22,-23.50,-99.472564.00,1.31,12.99,6.60,-16.42,3.45,-7.34,-17.22,-23.50,-99.472616.00,0.92,7.08,14.96,-9.31,0.66,-0.69,7.06,20.91,-131.572667.00,2.59,-4.56,0.95,-0.14,-7.02,-2.16,7.06,20.91,-131.572718.00,-1.23,7.93,13.99,3.67,-1.62,-4.55,-14.12,23.50,-126.752770.00,-9.61,9.92,11.88,-1.62,-2.82,-0.94,-14.12,23.50,-126.752821.00,-0.69,-7.76,11.83,5.76,-2.64,2.36,-14.12,23.50,-126.752872.00,0.03,-2.08,12.76,1.25,-1.94,0.52,-26.69,12.96,-118.932924.00,-1.95,-8.64,8.13,-10.06,-0.27,-2.90,-26.69,12.96,-118.932975.00,-3.94,9.75,8.87,-26.81,-1.43,-3.80,-30.48,35.07,-105.293026.00,-6.84,-6.61,1.04,-4.91,-0.57,-0.72,-30.48,35.07,-105.293078.00,-5.55,-8.55,0.91,-3.02,-0.21,-1.17,-34.09,40.43,-105.293129.00,-6.21,-6.09,1.87,-2.47,-0.08,-1.76,-34.09,40.43,-84.503180.00,-7.04,-6.66,-1.53,-2.45,-0.18,-1.80,-34.09,40.43,-84.503232.00,-9.29,-2.93,-2.71,-1.81,-0.18,-1.58,-38.23,26.61,-78.843283.00,-9.18,-4.22,-2.26,-0.81,0.33,-1.14,-38.23,26.61,-78.843334.00,-8.62,-5.75,-3.04,-0.31,0.50,-0.12,-38.23,26.61,-78.843386.00,-9.01,-4.07,-1.85,-0.45,0.32,-0.22,-40.29,21.08,-80.183438.00,-8.74,-3.80,-1.19,-0.51,0.18,0.06,-40.29,21.08,-80.183488.00,-8.45,-3.33,-1.58,-0.43,-0.22,0.02,-39.43,18.49,-79.343541.00,-9.23,-4.09,-2.57,-0.49,-0.45,0.16,-39.43,18.49,-79.343592.00,-9.10,-4.69,-1.52,-0.22,-0.41,0.12,-39.60,18.66,-78.843642.00,-8.89,-3.79,-2.48,-0.37,-0.42,-0.07,-39.60,18.66,-78.843695.00,-8.33,-4.46,-3.13,-0.32,-0.19,-0.09,-39.60,18.66,-78.843746.00,-8.19,-4.40,-2.79,-0.50,-0.17,-0.03,-38.57,18.66,-77.513797.00,-7.88,-4.39,-2.75,-0.44,-0.03,-0.28,-38.57,18.66,-77.513849.00,-8.97,-4.79,-3.16,-0.36,0.02,-0.05,-39.43,18.83,-76.683900.00,-9.29,-4.32,-3.26,-0.71,-0.18,-0.03,-39.43,18.83,-76.683951.00,-8.76,-3.96,-2.96,-0.54,0.05,0.01,-39.43,18.83,-76.684002.00,-8.42,-3.89,-3.39,-0.41,-0.02,-0.05,-39.43,16.41,-77.354053.00,-8.25,-3.73,-3.18,-0.33,-0.04,-0.10,-39.43,16.41,-77.354104.00,-8.70,-3.88,-3.38,-0.19,-0.01,-0.01,-40.47,15.72,-76.354155.00,-8.55,-3.86,-3.11,-0.25,-0.10,-0.01,-40.47,15.72,-76.354206.00,-8.57,-3.83,-3.24,-0.21,-0.04,-0.02,-40.47,15.72,-76.354258.00,-8.79,-3.89,-3.47,-0.26,-0.11,0.04,-38.92,16.24,-77.514309.00,-8.46,-3.80,-3.29,-0.26,-0.04,0.01,-38.92,16.24,-77.514360.00,-8.55,-3.56,-3.22,-0.26,-0.08,-0.07,-39.43,16.41,-76.024413.00,-8.78,-3.66,-3.40,-0.23,-0.05,-0.08,-39.43,16.41,-76.024464.00,-8.49,-3.64,-3.44,-0.23,-0.06,-0.02,-39.60,15.90,-75.854516.00,-8.39,-3.57,-3.55,-0.22,-0.00,-0.08,-39.60,15.90,-75.854568.00,-9.25,-4.23,-4.10,-0.30,-0.14,0.11,-39.60,15.90,-75.854619.00,-8.60,-3.42,-3.43,-0.18,-0.01,-0.01,-38.23,15.20,-76.184670.00,-8.72,-3.48,-3.64,-0.23,-0.06,0.08,-38.23,15.20,-76.184723.00,-8.67,-3.60,-3.60,-0.13,0.02,0.08,-39.09,14.69,-75.684774.00,-8.64,-3.56,-3.14,-0.18,-0.05,0.08,-39.09,14.69,-75.684825.00,-8.66,-3.74,-4.03,-0.24,-0.09,0.09,-39.09,14.69,-75.684878.00,-8.61,-3.55,-3.40,-0.14,-0.02,0.05,-39.43,17.11,-76.024929.00,-8.62,-3.74,-3.83,-0.17,-0.04,0.06,-39.43,17.11,-76.024980.00,-8.61,-3.62,-3.34,-0.17,-0.05,0.05,-39.60,13.82,-75.855032.00,-9.17,-3.84,-3.70,-0.22,0.04,0.00,-39.60,13.82,-75.855083.00,-8.56,-3.57,-2.67,-0.31,0.12,0.04,-39.60,13.82,-75.855134.00,-8.60,-3.51,-4.46,-0.32,0.01,0.11,-38.74,14.69,-75.685187.00,-8.19,-3.63,-3.92,-0.25,0.02,0.04,-38.74,14.69,-75.685238.00,-8.55,-3.61,-3.22,-0.19,0.04,0.04,-39.09,14.69,-77.355288.00,-8.23,-3.36,-3.40,-0.25,0.08,0.04,-39.09,14.69,-77.355341.00,-8.64,-3.56,-3.91,-0.16,0.01,0.04,-39.09,14.69,-77.355392.00,-8.63,-3.69,-3.44,-0.15,0.02,0.07,-40.29,14.86,-77.855443.00,-8.51,-3.66,-3.91,-0.10,0.02,0.05,-40.29,14.86,-77.855496.00,-8.49,-3.37,-3.43,-0.07,0.08,0.03,-39.43,16.41,-78.015547.00,-8.72,-3.58,-3.55,-0.09,0.01,0.03,-39.43,16.41,-78.015598.00,-7.97,-3.57,-2.98,-0.03,-0.03,0.02,-39.43,16.41,-78.015651.00,-8.93,-3.79,-3.30,-0.03,-0.10,-0.04,-39.60,15.20,-79.185702.00,-9.00,-3.06,-3.74,-0.04,-0.19,-0.06,-39.60,15.20,-79.185753.00,-9.14,-3.30,-2.91,-0.11,-0.16,-0.10,-38.74,15.72,-78.015805.00,-8.96,-3.06,-2.95,-0.31,-0.09,-0.06,-38.74,15.72,-78.015857.00,-8.80,-3.39,-3.66,-0.28,-0.00,-0.03,-38.23,14.17,-76.525907.00,-8.23,-4.06,-3.64,-0.20,-0.00,0.03,-38.23,14.17,-76.525960.00,-8.47,-4.16,-4.02,-0.21,-0.07,0.08,-38.23,14.17,-76.526011.00,-8.62,-3.36,-3.59,-0.11,0.08,-0.04,-39.43,15.72,-77.356062.00,-8.70,-3.33,-3.77,-0.18,-0.02,0.03,-39.43,15.72,-77.356114.00,-8.67,-3.58,-3.60,-0.13,0.01,0.04,-40.29,15.20,-76.526165.00,-8.67,-3.43,-3.72,-0.18,-0.04,0.02,-40.29,15.20,-76.526216.00,-8.68,-3.49,-3.70,-0.15,0.01,0.02,-40.29,15.20,-76.526267.00,-8.70,-3.42,-3.41,-0.10,-0.02,-0.01,-39.43,14.69,-77.016318.00,-8.76,-3.29,-3.79,-0.03,-0.11,0.01,-39.43,14.69,-77.016369.00,-8.98,-3.78,-4.64,-0.20,-0.30,0.41,-40.29,16.24,-77.186421.00,-8.77,-3.81,-3.88,-0.23,-0.10,0.27,-40.29,16.24,-77.186472.00,-8.28,-3.89,-3.22,-0.25,0.04,0.19,-39.95,16.59,-76.186524.00,-8.16,-3.80,-3.44,-0.28,0.11,-0.00,-39.95,16.59,-76.186575.00,-8.42,-3.73,-3.82,-0.29,0.07,-0.06,-39.95,16.59,-76.186626.00,-8.27,-3.67,-3.99,-0.25,0.01,-0.04,-40.29,16.93,-77.516679.00,-8.55,-3.72,-4.28,-0.20,-0.05,-0.02,-40.29,16.93,-77.516730.00,-8.57,-3.59,-3.64,-0.15,-0.07,0.02,-38.92,16.93,-77.186781.00,-8.59,-3.59,-3.66,-0.16,-0.05,0.01,-38.92,16.93,-77.186834.00,-8.57,-3.61,-3.89,-0.19,-0.08,0.04,-38.92,16.93,-77.186885.00,-8.48,-3.54,-3.71,-0.18,-0.07,0.01,-40.12,17.45,-76.686936.00,-8.44,-3.51,-3.65,-0.19,-0.04,-0.02,-40.12,17.45,-76.686989.00,-9.44,-3.25,-3.31,-0.27,-0.07,-0.02,-40.12,17.45,-76.687041.00,-8.56,-3.81,-4.55,-0.24,-0.13,0.05,-40.12,17.45,-76.687092.00,-8.56,-3.44,-3.60,-0.11,0.03,0.02,-40.12,17.45,-76.687145.00,-8.52,-3.50,-3.90,-0.18,-0.09,0.07,-40.12,16.41,-74.697196.00,-8.52,-3.50,-4.03,-0.20,-0.09,0.08,-40.12,16.41,-74.697247.00,-8.49,-3.73,-4.06,-0.19,-0.10,0.06,-38.74,15.72,-75.687300.00,-8.47,-3.56,-3.99,-0.20,-0.08,0.03,-38.74,15.72,-75.687351.00,-8.47,-3.57,-4.06,-0.21,-0.09,0.04,-39.95,16.24,-74.857402.00,-8.76,-3.60,-4.20,-0.19,-0.07,0.04,-39.95,16.24,-74.857454.00,-8.29,-3.43,-3.62,-0.26,-0.02,0.04,-39.95,16.24,-74.857506.00,-8.40,-3.60,-4.33,-0.29,-0.11,0.06,-38.57,16.59,-74.857556.00,-8.27,-3.70,-4.72,-0.24,-0.09,0.05,-38.57,16.59,-74.857609.00,-8.49,-3.45,-3.50,-0.18,0.04,0.04,-39.78,17.45,-75.357661.00,-8.61,-3.97,-3.53,-0.21,0.10,0.08,-39.78,17.45,-75.357712.00,-8.56,-3.96,-3.59,-0.18,0.17,0.07,-39.78,17.45,-75.357764.00,-8.72,-4.38,-4.24,-0.22,0.01,0.05,-39.26,16.59,-76.857816.00,-8.36,-3.30,-4.01,-0.14,0.06,0.01,-39.26,16.59,-76.857867.00,-8.39,-3.64,-4.17,-0.11,0.03,0.02,-38.92,15.55,-76.187920.00,-8.53,-3.37,-4.39,-0.13,0.03,0.02,-38.92,15.55,-76.187972.00,-8.50,-3.59,-3.90,-0.12,0.09,0.02,-38.92,15.55,-76.188023.00,-8.53,-3.53,-4.15,-0.11,0.05,0.05,-40.29,16.24,-76.858075.00,-8.39,-3.50,-3.95,-0.03,0.03,-0.00,-40.29,16.24,-76.858126.00,-8.60,-3.56,-3.63,0.04,0.04,-0.04,-41.33,16.59,-77.858177.00,-8.51,-3.60,-4.08,-0.04,-0.05,-0.03,-41.33,16.59,-77.858230.00,-8.31,-3.45,-3.62,0.04,-0.10,-0.04,-40.81,16.41,-77.018281.00,-8.01,-3.80,-2.08,0.02,0.05,-0.05,-40.81,16.41,-77.018332.00,-8.89,-3.29,-3.30,-0.11,-0.01,-0.02,-40.81,16.41,-77.018384.00,-8.64,-3.14,-3.50,-0.25,-0.12,0.03,-39.78,15.72,-76.688435.00,-8.60,-3.70,-4.04,-0.18,-0.08,0.05,-39.78,15.72,-76.688487.00,-8.72,-3.51,-3.78,-0.18,-0.05,0.03,-39.26,15.55,-77.188538.00,-8.76,-3.24,-3.88,-0.22,-0.04,0.00,-39.26,15.55,-77.188589.00,-8.57,-3.48,-3.80,-0.21,-0.00,0.04,-39.26,15.55,-77.188641.00,-8.63,-3.51,-3.79,-0.20,-0.03,0.04,-40.81,15.38,-76.688693.00,-8.45,-3.66,-3.84,-0.16,-0.01,-0.01,-40.81,15.38,-76.688743.00,-8.43,-3.52,-4.15,-0.16,-0.04,-0.02,-39.78,16.41,-77.018796.00,-8.61,-3.25,-3.93,-0.15,-0.05,-0.11,-39.78,16.41,-77.018848.00,-8.60,-3.40,-3.86,-0.23,-0.08,0.01,-41.15,15.38,-77.688899.00,-8.38,-3.95,-4.01,-0.21,-0.07,0.06,-41.15,15.38,-77.688951.00,-8.58,-3.80,-4.18,-0.25,-0.04,0.04,-41.15,15.38,-77.689002.00,-8.59,-3.31,-4.06,-0.15,0.04,-0.04,-39.95,16.24,-75.859053.00,-8.60,-3.33,-3.88,-0.16,-0.08,0.03,-39.95,16.24,-75.859106.00,-8.61,-3.53,-4.04,-0.14,-0.08,0.03,-39.95,16.24,-75.859157.00,-8.79,-2.71,-2.76,0.19,-0.07,0.01,-40.81,15.38,-76.029208.00,-9.48,-3.48,-4.13,-0.36,-0.24,0.30,-40.81,15.38,-76.029261.00,-8.24,-3.73,-4.40,-0.31,-0.02,0.33,-39.78,14.69,-77.359312.00,-7.43,-3.56,-4.05,-0.29,0.06,0.03,-39.78,14.69,-77.359363.00,-7.76,-3.55,-4.01,-0.23,0.04,-0.11,-39.78,14.69,-77.359416.00,-8.65,-3.65,-4.23,-0.22,-0.03,-0.02,-40.29,16.93,-76.189468.00,-8.30,-3.50,-4.31,-0.19,-0.06,0.04,-40.29,16.93,-76.189518.00,-8.41,-3.46,-4.14,-0.18,-0.07,0.02,-39.43,16.07,-76.359571.00,-8.89,-3.47,-4.26,-0.18,-0.06,0.00,-39.43,16.07,-76.359623.00,-8.40,-3.42,-4.04,-0.18,-0.03,0.05,-39.60,16.24,-77.189674.00,-8.40,-3.43,-4.33,-0.18,-0.02,-0.01,-39.60,16.24,-77.189726.00,-8.47,-3.47,-4.29,-0.15,-0.01,-0.02,-39.60,16.24,-77.189778.00,-8.43,-3.44,-4.13,-0.14,-0.03,0.02,-39.60,15.90,-76.529829.00,-8.45,-3.41,-4.10,-0.15,-0.02,0.04,-39.60,15.90,-76.529881.00,-8.48,-3.42,-4.33,-0.16,-0.05,0.04,-38.40,16.76,-76.359932.00,-8.49,-3.37,-4.15,-0.15,-0.01,0.01,-38.40,16.76,-76.359983.00,-8.64,-3.37,-4.22,-0.16,-0.03,0.01,-38.40,16.76,-76.3510036.00,-8.42,-3.39,-4.21,-0.17,-0.03,0.00,-38.92,17.28,-75.8510087.00,-8.13,-3.35,-4.13,-0.17,-0.05,0.01,-38.92,17.28,-75.8510138.00,-8.05,-3.18,-3.97,-0.16,-0.00,-0.07,-39.43,16.41,-76.6810191.00,-8.61,-3.69,-4.59,-0.17,-0.07,0.07,-39.43,16.41,-76.6810242.00,-8.46,-3.48,-4.40,-0.08,0.05,-0.01,-39.95,16.24,-76.5210294.00,-8.51,-3.33,-4.01,-0.06,0.08,-0.03,-39.95,16.24,-76.5210346.00,-8.54,-3.21,-3.94,-0.11,0.02,-0.01,-39.95,16.24,-76.5210398.00,-8.54,-3.40,-4.09,-0.11,-0.00,0.02,-39.26,15.20,-77.5110449.00,-8.55,-3.31,-3.95,-0.13,0.00,0.00,-39.26,15.20,-77.5110502.00,-8.55,-3.33,-4.19,-0.16,-0.04,0.02,-40.81,15.03,-77.0110553.00,-8.56,-3.36,-3.95,-0.10,0.01,0.02,-40.81,15.03,-77.0110604.00,-8.54,-3.37,-4.03,-0.14,-0.02,0.02,-40.81,15.03,-77.0110656.00,-8.55,-3.33,-4.10,-0.16,-0.04,0.03,-39.60,15.20,-75.8510708.00,-8.56,-3.40,-4.16,-0.12,-0.01,0.01,-39.60,15.20,-75.8510759.00,-8.58,-3.37,-3.83,-0.15,-0.03,0.02,-39.95,16.24,-76.5210811.00,-8.56,-3.32,-4.27,-0.17,-0.05,0.03,-39.95,16.24,-76.5210862.00,-8.54,-3.34,-3.98,-0.16,-0.04,0.03,-39.95,16.24,-76.5210913.00,-8.56,-3.28,-4.01,-0.22,-0.09,0.05,-38.57,16.59,-77.1810965.00,-8.57,-3.41,-4.00,-0.26,-0.11,0.06,-38.57,16.59,-77.1811016.00,-8.60,-3.10,-3.79,-0.25,-0.01,0.05,-40.47,15.38,-76.0211069.00,-8.65,-3.15,-4.55,-0.26,0.12,0.09,-40.47,15.38,-76.0211120.00,-8.15,-3.10,-3.33,-0.28,0.17,0.06,-39.95,16.93,-77.1811172.00,-7.94,-3.21,-4.76,-0.27,0.01,0.05,-39.95,16.93,-77.1811224.00,-8.54,-3.35,-4.82,-0.13,-0.02,0.01,-39.95,16.93,-77.1811276.00,-8.56,-3.24,-3.65,-0.08,0.04,-0.01,-40.29,16.24,-78.8411327.00,-8.52,-3.31,-3.98,-0.11,-0.04,0.03,-40.29,16.24,-78.8411380.00,-8.55,-3.53,-4.29,-0.11,-0.03,0.03,-40.81,15.72,-78.0111431.00,-8.38,-3.25,-3.70,-0.05,-0.04,0.00,-40.81,15.72,-78.0111483.00,-8.66,-3.36,-4.12,-0.17,-0.15,0.07,-40.81,15.72,-78.0111537.00,-8.60,-3.28,-3.74,-0.20,-0.04,0.05,-40.47,15.03,-77.3511589.00,-8.66,-3.23,-4.04,-0.23,-0.06,0.10,-40.47,15.03,-77.3511640.00,-8.30,-3.19,-4.01,-0.11,0.02,0.03,-41.33,16.24,-77.8511694.00,-8.45,-3.51,-4.43,-0.13,-0.02,0.04,-41.33,16.24,-77.8511746.00,-8.50,-3.23,-4.36,-0.03,0.01,0.00,-41.33,16.24,-77.8511797.00,-8.63,-3.29,-3.74,-0.05,-0.04,0.02,-39.26,15.55,-78.5111849.00,-8.69,-3.15,-3.84,-0.10,-0.10,-0.01,-39.26,15.55,-78.5111901.00,-8.61,-3.37,-4.03,-0.18,-0.09,0.02,-39.60,16.59,-76.8511952.00,-8.53,-3.28,-4.32,-0.20,-0.05,0.02,-39.60,16.59,-76.8512004.00,-8.69,-3.05,-4.19,-0.16,-0.01,-0.03,-40.12,16.76,-77.6812056.00,-8.77,-3.34,-3.85,-0.17,0.01,-0.08,-40.12,16.76,-77.6812107.00,-8.79,-2.92,-4.21,-0.19,-0.03,-0.10,-40.12,16.76,-77.6812160.00,-8.54,-3.11,-4.38,-0.18,-0.02,-0.02,-40.12,15.72,-76.6812212.00,-8.58,-3.41,-3.93,-0.21,-0.04,0.03,-40.12,15.72,-76.6812263.00,-8.50,-3.55,-4.13,-0.19,-0.03,0.07,-39.95,13.48,-77.5112317.00,-8.52,-3.56,-4.36,-0.18,-0.04,0.07,-39.95,13.48,-77.5112368.00,-8.54,-3.27,-4.20,-0.14,0.02,-0.00,-39.95,13.48,-77.5112420.00,-8.56,-3.16,-3.97,-0.17,-0.04,0.01,-40.12,15.72,-78.3512472.00,-8.58,-3.27,-4.33,-0.15,-0.04,0.02,-40.12,15.72,-78.3512524.00,-8.56,-3.17,-4.03,-0.16,-0.01,0.01,-39.60,14.51,-77.8512575.00,-8.57,-3.10,-4.12,-0.16,-0.04,0.03,-39.60,14.51,-77.8512628.00,-8.57,-3.26,-4.30,-0.15,-0.03,0.03,-40.64,15.20,-77.5112680.00,-8.59,-3.16,-4.17,-0.17,-0.02,0.00,-40.64,15.20,-77.5112731.00,-8.58,-3.14,-4.22,-0.13,0.01,0.00,-40.64,15.20,-77.5112784.00,-8.61,-3.14,-4.35,-0.17,-0.03,-0.00,-40.47,15.38,-76.3512835.00,-8.61,-2.82,-4.07,-0.16,0.01,-0.06,-40.47,15.38,-76.3512886.00,-8.68,-3.23,-4.16,-0.16,-0.05,0.02,-39.43,15.38,-78.0112939.00,-8.58,-3.42,-4.41,-0.16,-0.04,0.04,-39.43,15.38,-78.0112990.00,-8.61,-3.12,-4.12,-0.12,0.03,-0.02,-39.43,15.38,-78.0113042.00,-8.62,-3.06,-4.08,-0.13,-0.02,0.02,-40.12,15.72,-78.0113093.00,-8.63,-3.24,-4.30,-0.15,-0.04,0.02,-40.12,15.72,-78.0113145.00,-8.62,-3.08,-4.11,-0.14,0.00,-0.00,-40.81,14.69,-76.3513196.00,-8.64,-3.07,-4.16,-0.17,-0.07,0.04,-40.81,14.69,-76.3513248.00,-8.63,-3.12,-4.20,-0.11,-0.04,0.04,-40.81,14.69,-76.3513299.00,-8.63,-3.18,-4.15,-0.09,0.00,0.01,-40.81,14.00,-77.3513352.00,-8.63,-3.07,-3.96,-0.11,-0.02,0.00,-40.81,14.00,-77.3513404.00,-8.66,-3.03,-4.06,-0.13,-0.05,0.03,-39.43,15.38,-77.6813456.00,-8.78,-3.26,-3.88,0.00,-0.05,0.05,-39.43,15.38,-77.6813510.00,-9.28,-3.06,-4.16,-0.07,-0.04,0.05,-39.78,15.72,-77.3513561.00,-9.09,-3.27,-4.41,-0.13,-0.10,0.17,-39.78,15.72,-77.3513613.00,-7.88,-3.29,-4.09,-0.12,-0.04,0.10,-39.78,15.72,-77.3513667.00,-8.02,-3.17,-3.89,-0.15,-0.03,0.00,-40.29,16.93,-77.1813719.00,-8.71,-3.23,-3.90,-0.20,0.00,-0.04,-40.29,16.93,-77.1813770.00,-8.68,-3.32,-4.02,-0.20,0.00,0.02,-40.29,17.62,-77.5113824.00,-8.64,-3.36,-4.18,-0.18,-0.00,0.07,-40.29,17.62,-77.5113876.00,-8.44,-3.29,-4.16,-0.22,-0.01,0.03,-39.60,15.55,-78.1813928.00,-8.53,-3.25,-4.23,-0.17,-0.01,0.00,-39.60,15.55,-78.1813982.00,-8.70,-3.23,-3.99,-0.15,-0.02,0.01,-39.60,15.55,-78.1814033.00,-8.65,-3.23,-4.18,-0.15,-0.02,0.00,-39.43,14.34,-77.3514084.00,-8.58,-3.24,-4.03,-0.14,-0.03,0.03,-39.43,14.34,-77.3514138.00,-8.68,-3.22,-4.04,-0.15,-0.03,-0.00,-39.43,15.03,-77.6814190.00,-8.79,-3.28,-4.13,-0.13,-0.03,0.03,-39.43,15.03,-77.6814241.00,-8.67,-3.25,-4.09,-0.14,-0.02,0.03,-39.43,15.03,-77.6814295.00,-8.43,-3.24,-4.03,-0.13,-0.03,0.02,-39.95,15.20,-77.1814346.00,-8.59,-3.21,-4.01,-0.13,-0.05,0.02,-39.95,15.20,-77.1814397.00,-8.57,-3.22,-4.00,-0.15,-0.04,0.01,-40.12,16.07,-77.0114451.00,-8.71,-3.23,-4.07,-0.14,-0.02,0.01,-40.12,16.07,-77.0114503.00,-8.64,-3.24,-4.15,-0.15,-0.04,0.01,-39.09,15.72,-77.6814554.00,-8.64,-3.17,-4.07,-0.16,-0.03,0.02,-39.09,15.72,-77.6814607.00,-8.46,-3.18,-4.11,-0.15,-0.04,0.03,-39.09,15.72,-77.6814659.00,-8.73,-3.17,-3.95,-0.15,-0.04,-0.02,-38.92,15.90,-78.1814711.00,-8.75,-3.18,-4.07,-0.14,-0.04,0.00,-38.92,15.90,-78.1814765.00,-8.67,-3.19,-4.06,-0.13,-0.03,0.02,-40.81,15.38,-78.3514817.00,-8.71,-3.19,-4.07,-0.13,-0.03,0.00,-40.81,15.38,-78.3514868.00,-8.61,-3.17,-3.97,-0.14,-0.02,0.02,-40.81,15.38,-78.3514922.00,-8.51,-3.16,-4.06,-0.14,-0.03,0.02,-39.78,15.38,-76.3514973.00,-8.68,-3.17,-4.05,-0.14,-0.03,0.01,-39.78,15.38,-76.3515024.00,-8.52,-3.14,-4.15,-0.15,-0.04,-0.00,-39.78,16.41,-78.3515078.00,-8.66,-3.22,-3.92,-0.13,-0.04,0.01,-39.78,16.41,-78.3515130.00,-8.70,-3.17,-4.02,-0.14,-0.07,0.02,-39.78,16.41,-78.3515181.00,-8.45,-3.13,-4.12,-0.15,-0.05,-0.01,-40.29,15.90,-77.8515234.00,-8.75,-3.11,-4.02,-0.13,-0.05,-0.03,-40.29,15.90,-77.8515285.00,-8.64,-3.14,-4.10,-0.16,-0.03,-0.02,-39.26,13.82,-77.8515338.00,-8.31,-3.02,-4.10,-0.17,-0.03,-0.05,-39.26,13.82,-77.8515390.00,-9.56,-2.83,-4.48,-0.18,-0.08,-0.00,-40.12,15.38,-78.6815441.00,-8.57,-2.87,-3.62,-0.18,-0.06,0.01,-40.12,15.38,-78.6815494.00,-8.68,-3.04,-4.65,-0.21,-0.12,0.10,-40.12,15.38,-78.6815546.00,-8.61,-2.98,-3.81,-0.09,0.03,0.06,-39.95,15.90,-77.5115597.00,-8.62,-3.12,-3.80,-0.15,-0.04,0.07,-39.95,15.90,-77.5115650.00,-8.74,-3.05,-3.98,-0.26,-0.12,0.07,-40.12,14.69,-78.0115702.00,-8.63,-2.61,-3.27,-0.26,0.11,0.04,-40.12,14.69,-78.0115754.00,-8.87,-3.43,-3.44,-0.31,0.14,0.09,-40.12,14.69,-78.0115807.00,-8.11,-3.15,-4.44,-0.33,0.07,0.09,-40.29,14.86,-77.5115859.00,-8.36,-3.28,-4.91,-0.17,-0.02,0.01,-40.29,14.86,-77.5115910.00,-8.64,-3.04,-3.74,-0.04,0.10,-0.04,-39.60,15.90,-79.1815964.00,-8.65,-3.07,-4.19,-0.14,-0.06,0.05,-39.60,15.90,-79.1816015.00,-8.61,-3.19,-3.88,-0.10,-0.01,0.05,-39.60,15.90,-79.1816067.00,-8.57,-3.33,-4.27,-0.12,-0.02,0.04,-40.47,16.07,-78.3516121.00,-8.63,-3.14,-3.78,-0.16,-0.05,0.00,-40.47,16.07,-78.3516173.00,-8.70,-3.22,-4.24,-0.19,-0.05,0.02,-40.47,15.38,-77.0116224.00,-8.70,-2.80,-3.90,-0.18,0.05,0.01,-40.47,15.38,-77.0116278.00,-8.50,-3.04,-4.10,-0.16,-0.04,0.03,-39.95,14.51,-78.1816330.00,-8.84,-2.91,-4.20,-0.12,-0.01,0.03,-39.95,14.51,-78.1816381.00,-8.53,-3.55,-4.24,-0.12,-0.09,0.04,-39.95,14.51,-78.5116435.00,-8.52,-2.98,-4.29,-0.09,-0.04,0.01,-39.95,14.51,-78.5116486.00,-9.07,-3.23,-4.52,-0.09,-0.08,0.05,-39.95,14.51,-78.5116538.00,-8.83,-2.97,-4.11,-0.07,-0.08,0.04,-39.43,15.72,-78.0116592.00,-8.70,-2.86,-3.79,-0.11,-0.02,-0.01,-39.43,15.72,-78.0116643.00,-8.41,-2.95,-3.89,-0.11,-0.06,0.02,-39.26,15.55,-78.1816695.00,-8.52,-3.16,-4.12,-0.12,-0.10,-0.01,-39.26,15.55,-78.1816749.00,-8.47,-2.73,-3.84,-0.13,-0.06,-0.06,-39.26,15.55,-78.1816800.00,-8.61,-2.61,-3.57,-0.14,0.00,-0.06,-39.43,16.76,-77.3516852.00,-8.50,-3.12,-3.86,-0.22,-0.04,0.01,-39.43,16.76,-77.3516906.00,-8.57,-3.15,-3.96,-0.17,-0.02,-0.02,-40.98,15.55,-77.5116957.00,-8.76,-3.04,-4.32,-0.22,-0.05,0.01,-40.98,15.55,-77.5117009.00,-8.82,-3.04,-4.18,-0.24,-0.03,-0.02,-40.98,15.55,-77.5117063.00,-8.37,-3.04,-4.16,-0.19,0.00,0.02,-40.29,14.51,-77.8517115.00,-8.54,-2.95,-4.23,-0.23,-0.00,0.05,-40.29,14.51,-77.8517166.00,-8.72,-3.12,-4.36,-0.23,-0.05,0.11,-40.64,13.82,-77.5117220.00,-8.66,-3.21,-4.64,-0.25,-0.09,0.10,-40.64,13.82,-77.5117272.00,-8.51,-2.99,-4.10,-0.18,0.00,0.02,-39.95,15.55,-76.5217324.00,-8.58,-3.13,-4.55,-0.19,-0.05,0.03,-39.95,15.55,-76.5217381.00,-8.61,-2.98,-4.10,-0.09,0.05,-0.01,-39.95,15.55,-76.5217431.00,-8.63,-2.89,-4.21,-0.16,-0.02,-0.01,-39.95,16.24,-78.1817481.00,-8.62,-3.00,-4.10,-0.11,0.02,0.00,-39.95,16.24,-78.1817532.00,-8.65,-2.94,-4.31,-0.16,-0.01,-0.01,-40.47,14.69,-77.3517582.00,-8.67,-2.93,-4.08,-0.12,-0.00,0.00,-40.47,14.69,-77.3517633.00,-8.66,-2.89,-4.38,-0.15,-0.01,0.01,-40.47,14.69,-77.3517684.00,-8.68,-2.95,-4.25,-0.14,0.03,-0.01,-40.47,15.38,-78.6817734.00,-8.70,-2.70,-3.85,-0.11,0.04,-0.01,-40.47,15.38,-78.6817784.00,-8.69,-2.94,-4.24,-0.14,-0.05,0.05,-39.43,14.69,-78.3517835.00,-8.70,-2.97,-4.13,-0.14,-0.03,0.04,-39.43,14.69,-78.3517886.00,-8.70,-2.90,-4.10,-0.14,-0.02,0.02,-39.43,14.69,-78.3517937.00,-8.69,-2.92,-4.17,-0.14,-0.03,0.03,-39.60,16.24,-76.8517988.00,-8.69,-2.93,-4.09,-0.16,-0.04,0.03,-39.60,16.24,-76.8518039.00,-8.69,-2.91,-4.07,-0.14,-0.03,0.03,-40.81,14.69,-77.6818090.00,-8.70,-2.91,-4.32,-0.16,-0.04,0.04,-40.81,14.69,-77.6818142.00,-8.68,-2.97,-3.98,-0.17,-0.07,0.04,-40.98,16.93,-77.1818192.00,-8.68,-2.95,-4.42,-0.16,-0.07,0.03,-40.98,16.93,-77.1818244.00,-8.64,-2.94,-4.06,-0.14,-0.03,0.02,-40.98,16.93,-77.1818295.00,-8.69,-2.81,-4.28,-0.12,-0.06,0.05,-39.26,14.86,-77.8518346.00,-8.67,-3.26,-3.47,0.03,-0.11,0.06,-39.26,14.86,-77.8518397.00,-9.29,-2.96,-4.50,-0.17,-0.30,0.07,-39.26,14.86,-77.8518449.00,-8.87,-3.09,-4.08,-0.18,-0.00,0.17,-41.33,16.24,-78.1818500.00,-8.38,-3.16,-4.42,-0.24,0.07,0.13,-41.33,16.24,-78.1818551.00,-8.34,-3.18,-4.42,-0.19,0.07,0.10,-39.95,16.59,-77.1818603.00,-8.09,-3.13,-4.27,-0.20,0.06,0.01,-39.95,16.59,-77.1818653.00,-8.41,-3.07,-4.47,-0.17,0.01,-0.03,-41.50,15.38,-78.3518704.00,-8.63,-2.99,-4.12,-0.15,-0.01,-0.05,-41.50,15.38,-78.3518756.00,-8.64,-2.97,-4.18,-0.17,-0.02,-0.03,-41.50,15.38,-78.3518806.00,-8.66,-2.99,-4.26,-0.17,-0.05,-0.00,-40.12,16.41,-78.0118858.00,-8.50,-3.05,-4.14,-0.17,-0.03,-0.01,-40.12,16.41,-78.0118910.00,-8.89,-3.01,-4.26,-0.18,-0.05,-0.02,-39.95,15.20,-77.5118960.00,-8.55,-3.03,-4.19,-0.18,-0.04,0.01,-39.95,15.20,-77.5119011.00,-8.56,-2.93,-4.17,-0.17,-0.05,-0.00,-39.95,15.20,-77.5119063.00,-8.70,-2.95,-4.21,-0.16,-0.03,0.00,-39.78,15.03,-77.6819114.00,-8.56,-2.81,-4.16,-0.18,-0.04,0.01,-39.78,15.03,-77.6819164.00,-8.67,-2.95,-4.35,-0.13,-0.04,0.04,-38.92,15.20,-78.5119216.00,-8.67,-2.99,-4.08,-0.11,-0.03,0.04,-38.92,15.20,-78.5119266.00,-8.65,-2.99,-4.53,-0.10,-0.04,0.02,-38.92,15.20,-78.5119317.00,-8.63,-2.90,-4.25,-0.05,0.04,0.02,-40.98,15.55,-77.1819369.00,-8.65,-2.95,-4.03,-0.09,-0.02,0.06,-40.98,15.55,-77.1819419.00,-8.64,-3.04,-4.18,-0.12,-0.04,0.06,-39.09,14.69,-78.0119470.00,-8.62,-3.03,-4.16,-0.15,-0.03,0.04,-39.09,14.69,-78.0119522.00,-8.62,-3.03,-4.19,-0.17,-0.06,0.04,-40.12,15.72,-79.0119572.00,-8.61,-3.02,-4.29,-0.16,-0.05,0.04,-40.12,15.72,-79.0119622.00,-8.61,-3.03,-4.19,-0.16,-0.03,0.02,-40.12,15.72,-79.0119674.00,-8.62,-3.01,-4.28,-0.16,-0.04,0.02,-38.92,16.93,-77.8519725.00,-8.64,-3.01,-4.13,-0.15,-0.04,0.02,-38.92,16.93,-77.8519775.00,-8.61,-2.99,-4.30,-0.17,-0.04,0.03,-38.92,16.93,-77.8519826.00,-8.60,-2.99,-4.19,-0.17,-0.05,0.03,-39.78,16.41,-76.6819876.00,-8.61,-3.04,-4.33,-0.19,-0.07,0.04,-39.78,16.41,-76.6819927.00,-8.61,-2.97,-4.21,-0.21,-0.07,0.04,-40.29,15.20,-77.8519977.00,-8.60,-3.00,-4.40,-0.22,-0.09,0.04,-40.29,15.20,-77.8520027.00,-8.59,-3.03,-4.27,-0.19,-0.07,0.03,-39.09,16.07,-78.0120079.00,-8.59,-3.03,-4.28,-0.21,-0.09,0.01,-39.09,16.07,-78.0120130.00,-8.58,-2.94,-4.29,-0.24,-0.06,0.02,-39.09,16.07,-78.0120180.00,-8.81,-2.96,-4.51,-0.18,-0.03,0.04,-40.81,16.41,-77.0120232.00,-9.20,-3.01,-5.45,-0.32,-0.06,0.05,-40.81,16.41,-77.0120282.00,-8.40,-3.55,-4.02,-0.20,0.02,0.03,-39.60,16.24,-79.1820333.00,-8.77,-3.39,-4.76,-0.17,0.03,0.03,-39.60,16.24,-79.1820385.00,-8.68,-3.15,-4.09,-0.14,0.03,0.03,-39.60,16.24,-79.1820435.00,-8.66,-2.80,-5.05,-0.24,-0.04,0.02,-40.98,15.90,-78.1820486.00,-8.60,-2.84,-4.27,-0.08,0.06,-0.01,-40.98,15.90,-78.1820539.00,-8.60,-2.92,-4.16,-0.11,0.02,-0.00,-41.15,15.72,-78.6820589.00,-8.35,-3.16,-4.19,-0.06,0.03,0.03,-41.15,15.72,-78.6820639.00,-8.68,-2.78,-4.23,-0.08,-0.04,0.03,-41.15,15.72,-78.6820691.00,-8.47,-3.16,-4.28,-0.06,-0.02,0.02,-40.12,16.07,-78.6820742.00,-8.78,-2.73,-4.85,-0.06,-0.09,-0.01,-40.12,16.07,-78.6820793.00,-8.43,-2.82,-3.81,0.05,-0.03,-0.04,-40.64,14.51,-78.1820845.00,-8.69,-2.24,-2.66,0.01,0.13,-0.05,-40.64,14.51,-78.1820895.00,-8.62,-2.41,-3.76,-0.19,-0.13,0.03,-40.64,14.51,-78.1820946.00,-8.81,-3.06,-4.32,-0.20,-0.10,0.01,-41.15,15.72,-78.6820998.00,-8.68,-3.10,-4.20,-0.17,-0.03,-0.01,-41.15,15.72,-78.6821048.00,-8.93,-2.88,-4.13,-0.22,-0.04,0.04,-40.47,15.03,-80.0121098.00,-8.81,-3.05,-3.74,-0.22,-0.02,0.01,-40.47,15.03,-80.0121150.00,-8.66,-2.60,-4.18,-0.27,-0.04,0.04,-40.47,15.03,-80.0121200.00,-8.67,-2.36,-4.94,-0.30,-0.00,0.03,-40.47,14.69,-78.6821251.00,-8.22,-3.17,-4.62,-0.21,-0.05,0.03,-40.47,14.69,-78.6821303.00,-8.48,-3.30,-4.38,-0.13,0.00,0.01,-40.98,15.20,-77.5121353.00,-8.64,-2.89,-4.16,-0.17,0.01,-0.03,-40.98,15.20,-77.5121404.00,-8.68,-2.63,-4.21,-0.15,-0.03,0.03,-41.50,15.38,-78.0121456.00,-8.67,-2.99,-4.13,-0.13,-0.06,0.06,-41.50,15.38,-78.0121506.00,-8.67,-2.93,-4.50,-0.17,-0.02,0.01,-41.50,15.38,-78.0121557.00,-8.67,-2.82,-4.00,-0.15,-0.00,-0.00,-39.60,15.55,-77.8521609.00,-8.68,-2.84,-4.50,-0.15,-0.03,0.01,-39.60,15.55,-77.8521660.00,-8.68,-2.88,-4.00,-0.12,0.00,0.01,-39.60,15.55,-77.8521710.00,-8.67,-2.79,-4.37,-0.14,-0.01,0.01,-41.33,13.48,-77.8521762.00,-8.67,-2.81,-4.06,-0.13,-0.02,0.01,-41.33,13.48,-77.8521813.00,-8.69,-2.84,-4.13,-0.12,-0.02,0.01,-39.78,14.00,-77.6821864.00,-8.68,-2.82,-4.37,-0.16,-0.06,0.04,-39.78,14.00,-77.6821916.00,-8.68,-2.90,-4.31,-0.07,-0.00,0.04,-39.95,15.20,-77.5121966.00,-8.68,-2.92,-4.15,-0.10,-0.01,0.02,-39.95,15.20,-77.5122017.00,-8.67,-2.71,-4.22,-0.13,-0.03,0.03,-39.95,15.20,-77.5122068.00,-8.68,-3.05,-4.10,-0.11,-0.04,0.05,-40.81,14.00,-78.6822118.00,-8.70,-3.04,-4.39,-0.10,-0.06,0.03,-40.81,14.00,-78.6822170.00,-8.88,-2.08,-3.56,-0.03,-0.33,0.01,-40.47,15.03,-78.6822221.00,-8.78,-2.74,-3.65,-0.09,-0.15,0.21,-40.47,15.03,-78.6822271.00,-8.59,-3.02,-4.12,-0.26,-0.02,0.12,-40.47,15.03,-78.6822323.00,-8.67,-3.16,-4.29,-0.25,0.06,0.11,-39.95,16.59,-76.5222373.00,-8.34,-3.24,-4.42,-0.22,0.06,0.10,-39.95,16.59,-76.5222424.00,-8.35,-3.17,-4.43,-0.23,0.02,0.03,-41.15,17.11,-77.0122476.00,-8.37,-3.08,-4.44,-0.20,0.03,0.01,-41.15,17.11,-77.0122527.00,-8.55,-3.08,-4.53,-0.17,-0.00,-0.00,-40.64,16.59,-77.8522577.00,-8.54,-3.01,-4.32,-0.16,-0.02,0.00,-40.64,16.59,-77.8522629.00,-8.61,-2.98,-4.30,-0.15,-0.03,-0.00,-40.64,16.59,-77.8522680.00,-8.65,-3.01,-4.32,-0.15,-0.02,0.00,-40.12,15.72,-77.3522730.00,-8.64,-3.04,-4.31,-0.13,-0.03,0.04,-40.12,15.72,-77.3522782.00,-8.55,-3.06,-4.30,-0.12,-0.02,0.04,-40.12,15.72,-77.3522833.00,-8.50,-3.06,-4.24,-0.15,-0.03,0.01,-39.95,16.59,-76.8522884.00,-8.61,-3.02,-4.34,-0.14,-0.03,0.01,-39.95,16.59,-76.8522936.00,-8.61,-3.05,-4.33,-0.13,-0.04,0.01,-40.29,16.24,-78.8422986.00,-8.65,-3.05,-4.25,-0.13,-0.05,-0.01,-40.29,16.24,-78.8423037.00,-8.52,-2.95,-4.14,-0.13,-0.00,-0.02,-40.29,16.24,-78.8423089.00,-8.50,-2.91,-4.17,-0.15,-0.05,-0.02,-40.12,14.69,-78.0123140.00,-8.62,-2.90,-4.23,-0.17,-0.04,-0.03,-40.12,14.69,-78.0123190.00,-8.55,-2.90,-4.20,-0.18,-0.04,-0.04,-40.29,15.55,-77.5123242.00,-8.84,-2.91,-4.25,-0.17,-0.05,-0.02,-40.29,15.55,-77.5123293.00,-8.52,-2.88,-4.43,-0.18,-0.04,0.00,-39.60,16.59,-78.5123343.00,-8.77,-2.95,-4.59,-0.14,-0.05,-0.01,-39.60,16.59,-78.5123395.00,-8.72,-2.87,-4.29,-0.14,-0.03,0.01,-39.60,16.59,-78.5123446.00,-8.65,-2.98,-4.33,-0.11,-0.02,0.03,-40.81,14.69,-78.0123496.00,-8.61,-2.85,-4.30,-0.11,-0.01,0.01,-40.81,14.69,-78.0123549.00,-8.69,-2.95,-4.35,-0.13,-0.02,0.03,-40.47,16.41,-77.6823599.00,-8.64,-2.84,-4.17,-0.14,-0.02,0.02,-40.47,16.41,-77.6823650.00,-8.64,-2.88,-4.28,-0.13,-0.02,0.03,-40.47,16.41,-77.6823702.00,-8.62,-2.88,-4.19,-0.17,-0.05,0.03,-41.33,15.20,-77.8523753.00,-8.62,-2.88,-4.37,-0.14,-0.01,0.02,-41.33,15.20,-77.8523803.00,-8.64,-2.94,-4.19,-0.14,-0.00,0.01,-40.98,14.86,-78.5123855.00,-8.64,-2.85,-4.42,-0.16,0.00,0.00,-40.98,14.86,-78.5123906.00,-8.66,-2.87,-4.04,-0.14,0.01,0.01,-40.98,14.86,-78.5123956.00,-8.66,-2.84,-4.43,-0.16,-0.01,0.01,-40.12,16.41,-78.0124009.00,-8.67,-2.72,-4.15,-0.22,-0.06,0.02,-40.12,16.41,-78.0124059.00,-8.67,-2.87,-4.31,-0.18,-0.05,0.03,-40.12,14.34,-78.3524110.00,-8.58,-2.76,-4.21,-0.22,-0.07,0.04,-40.12,14.34,-78.3524162.00,-8.64,-2.86,-4.57,-0.19,-0.07,0.03,-40.12,14.34,-78.3524213.00,-8.65,-2.72,-4.30,-0.21,-0.07,0.01,-40.81,15.72,-77.0124264.00,-8.64,-2.82,-4.30,-0.21,-0.07,0.03,-40.81,15.72,-77.0124315.00,-8.88,-2.85,-4.46,-0.22,-0.05,0.06,-40.47,15.72,-78.6824365.00,-9.26,-2.48,-4.26,-0.21,0.11,0.09,-40.47,15.72,-78.6824417.00,-8.45,-3.49,-3.80,-0.29,0.06,0.14,-41.50,16.07,-78.3524468.00,-8.79,-2.68,-5.23,-0.27,-0.01,0.09,-41.50,16.07,-78.3524518.00,-8.21,-2.70,-4.23,-0.13,0.13,0.05,-41.50,16.07,-78.3524570.00,-8.69,-2.72,-4.76,-0.13,0.05,-0.05,-40.64,16.24,-78.1824621.00,-8.64,-2.61,-3.56,-0.07,0.03,-0.02,-40.64,16.24,-78.1824672.00,-8.49,-2.97,-4.58,-0.07,-0.02,0.05,-40.98,16.93,-78.8424724.00,-8.10,-3.08,-3.74,-0.06,0.03,0.04,-40.98,16.93,-78.8424775.00,-8.32,-3.25,-4.35,-0.07,-0.10,0.04,-40.98,16.93,-78.8424825.00,-7.77,-3.12,-3.96,-0.01,-0.11,0.01,-39.78,16.07,-78.6824878.00,-8.79,-3.26,-3.73,-0.04,-0.08,-0.02,-39.78,16.07,-78.6824929.00,-8.75,-2.30,-3.52,-0.04,-0.04,-0.03,-40.98,15.90,-78.5124980.00,-8.93,-2.61,-3.83,-0.11,-0.02,0.01,-40.98,15.90,-78.5125032.00,-8.79,-2.95,-4.19,-0.15,-0.07,0.05,-40.98,15.90,-78.5125083.00,-8.70,-2.82,-4.35,-0.18,-0.06,0.02,-39.78,16.07,-78.3525134.00,-8.59,-2.76,-4.06,-0.19,-0.02,-0.02,-39.78,16.07,-78.3525186.00,-8.62,-2.85,-3.93,-0.21,-0.03,-0.00,-40.29,16.24,-79.1825237.00,-8.67,-2.99,-4.07,-0.22,-0.07,0.04,-40.29,16.24,-79.1825288.00,-8.71,-2.96,-4.44,-0.21,-0.01,0.02,-41.15,16.07,-78.6825340.00,-8.31,-2.77,-4.26,-0.18,0.07,-0.02,-41.15,16.07,-78.6825391.00,-8.62,-3.25,-4.38,-0.17,-0.02,0.04,-41.15,16.07,-78.6825442.00,-8.55,-3.11,-4.05,-0.16,-0.03,0.03,-42.53,15.72,-78.6825494.00,-8.53,-3.03,-4.27,-0.15,-0.04,0.02,-42.53,15.72,-78.6825545.00,-8.66,-3.08,-4.28,-0.16,-0.03,0.03,-42.53,15.72,-78.6825596.00,-8.69,-2.53,-4.10,-0.16,-0.02,-0.00,-40.47,16.07,-78.0125648.00,-8.71,-2.70,-4.19,-0.15,-0.08,0.05,-40.47,16.07,-78.0125699.00,-8.68,-2.98,-4.42,-0.13,-0.02,0.02,-42.36,15.90,-78.5125750.00,-8.70,-2.78,-4.34,-0.07,-0.02,0.00,-42.36,15.90,-78.5125802.00,-8.85,-2.20,-3.43,0.04,-0.12,0.03,-39.95,16.93,-79.1825853.00,-9.39,-2.77,-4.48,-0.23,-0.05,0.19,-39.95,16.93,-79.1825904.00,-8.85,-2.98,-4.27,-0.23,-0.04,0.29,-39.95,16.93,-79.1825956.00,-7.95,-3.15,-4.27,-0.20,0.04,0.14,-40.12,16.76,-78.0126007.00,-8.10,-3.17,-4.37,-0.20,0.03,0.02,-40.12,16.76,-78.0126058.00,-8.63,-3.10,-4.37,-0.17,0.01,-0.01,-40.29,16.93,-78.8426111.00,-8.35,-3.03,-4.38,-0.16,-0.03,0.03,-40.29,16.93,-78.8426161.00,-8.51,-2.93,-4.25,-0.16,-0.05,0.01,-40.29,16.93,-78.8426213.00,-8.66,-2.93,-4.27,-0.17,-0.05,0.01,-40.64,17.62,-78.5126265.00,-8.60,-2.89,-4.30,-0.16,-0.04,0.02,-40.64,17.62,-78.5126316.00,-8.54,-2.99,-4.46,-0.18,-0.05,0.02,-42.53,17.45,-79.3426367.00,-8.64,-2.99,-4.32,-0.18,-0.07,0.00,-42.53,17.45,-79.3426419.00,-8.70,-3.00,-4.39,-0.19,-0.04,0.01,-42.53,17.45,-79.3426470.00,-8.45,-2.95,-4.37,-0.16,-0.07,0.03,-41.84,17.45,-78.3526521.00,-8.66,-2.89,-4.41,-0.16,-0.07,0.01,-41.84,17.45,-78.3526572.00,-8.61,-2.83,-4.37,-0.16,-0.02,0.01,-40.12,15.38,-79.0126623.00,-8.51,-2.92,-4.47,-0.12,-0.02,0.02,-40.12,15.38,-79.0126674.00,-8.64,-2.94,-4.28,-0.11,-0.03,0.01,-40.98,16.59,-77.8526725.00,-8.60,-2.94,-4.31,-0.14,-0.03,0.02,-40.98,16.59,-77.8526775.00,-8.53,-2.92,-4.38,-0.14,-0.03,-0.00,-40.98,16.59,-77.8526828.00,-8.57,-2.90,-4.47,-0.13,-0.03,0.01,-40.12,17.45,-79.3426879.00,-8.63,-2.90,-4.31,-0.13,-0.05,0.00,-40.12,17.45,-79.3426930.00,-8.59,-2.88,-4.36,-0.13,-0.02,-0.00,-40.12,17.45,-79.3426982.00,-8.67,-2.88,-4.30,-0.13,-0.02,0.02,-40.12,17.11,-80.0127033.00,-8.44,-2.86,-4.35,-0.16,-0.03,-0.01,-40.12,17.11,-80.0127084.00,-8.48,-2.87,-4.40,-0.16,-0.03,-0.03,-40.64,16.24,-78.5127136.00,-8.66,-2.82,-4.35,-0.13,-0.01,-0.04,-40.64,16.24,-78.5127187.00,-8.53,-2.81,-4.33,-0.14,0.00,-0.04,-41.15,15.72,-78.6827238.00,-8.71,-2.83,-4.23,-0.08,0.03,-0.00,-41.15,15.72,-78.6827291.00,-8.71,-2.83,-4.43,-0.10,0.02,-0.00,-41.15,15.72,-78.6827342.00,-8.66,-2.79,-4.19,-0.07,0.05,-0.03,-40.81,16.41,-77.6827393.00,-8.71,-2.75,-4.23,-0.11,0.01,0.02,-40.81,16.41,-77.6827445.00,-8.70,-2.73,-4.13,-0.12,0.00,0.02,-41.50,16.07,-79.0127496.00,-8.72,-2.88,-4.31,-0.15,-0.05,0.02,-41.50,16.07,-79.0127547.00,-8.71,-2.83,-4.28,-0.13,-0.01,0.00,-41.50,16.07,-79.0127600.00,-8.72,-2.72,-4.08,-0.13,-0.02,0.00,-41.15,16.41,-78.6827651.00,-8.72,-2.75,-4.15,-0.15,-0.04,0.00,-41.15,16.41,-78.6827702.00,-8.72,-2.77,-4.24,-0.17,-0.04,0.02,-40.98,16.24,-77.5127755.00,-8.71,-2.76,-4.26,-0.17,-0.04,0.03,-40.98,16.24,-77.5127806.00,-8.71,-2.69,-4.06,-0.18,-0.05,0.04,-40.98,16.24,-77.5127856.00,-8.69,-2.73,-4.35,-0.17,-0.05,0.08,-42.19,15.72,-79.3427909.00,-8.70,-2.83,-4.17,-0.18,-0.06,0.09,-42.19,15.72,-79.3427959.00,-8.67,-2.87,-4.40,-0.14,-0.04,0.06,-41.84,16.41,-79.0128010.00,-8.66,-2.91,-4.12,-0.14,-0.03,0.04,-41.84,16.41,-79.0128063.00,-8.65,-2.79,-4.42,-0.19,-0.06,0.03,-40.47,15.38,-78.3528114.00,-8.64,-2.76,-4.10,-0.18,-0.06,0.05,-40.47,15.38,-78.3528165.00,-8.64,-2.78,-4.46,-0.20,-0.08,0.07,-40.47,15.38,-78.3528217.00,-8.61,-2.88,-4.29,-0.18,-0.08,0.07,-41.84,16.41,-77.3528268.00,-8.61,-2.88,-4.48,-0.20,-0.09,0.06,-41.84,16.41,-77.3528319.00,-8.59,-2.88,-4.38,-0.17,-0.05,0.04,-40.47,16.76,-78.6828371.00,-8.58,-2.88,-4.43,-0.18,-0.05,0.03,-40.47,16.76,-78.6828422.00,-8.58,-2.82,-4.33,-0.18,-0.05,0.03,-40.47,16.76,-78.6828473.00,-8.57,-2.85,-4.59,-0.17,-0.06,0.02,-41.33,16.24,-78.5128525.00,-8.56,-2.83,-4.32,-0.16,-0.04,0.02,-41.33,16.24,-78.5128576.00,-8.60,-2.82,-4.52,-0.19,-0.07,0.02,-40.29,17.62,-78.1828627.00,-8.57,-2.77,-4.55,-0.22,-0.06,0.03,-40.29,17.62,-78.1828680.00,-8.75,-2.80,-4.49,-0.22,-0.03,0.02,-40.29,17.62,-78.1828731.00,-8.81,-2.66,-4.27,-0.20,0.05,0.01,-40.29,17.62,-78.1828782.00,-8.24,-2.84,-4.03,-0.19,0.08,0.02,-40.29,17.62,-78.1828833.00,-8.91,-2.91,-4.34,-0.26,0.06,0.05,-40.64,16.93,-78.5128884.00,-7.88,-3.03,-3.39,-0.24,0.18,0.07,-40.64,16.93,-78.5128936.00,-8.75,-2.68,-5.67,-0.24,0.01,0.09,-41.50,18.14,-79.3428988.00,-8.50,-3.07,-4.75,-0.11,0.08,0.05,-41.50,18.14,-79.3429039.00,-8.60,-2.48,-4.50,-0.10,0.04,0.00,-41.50,18.14,-79.3429091.00,-8.70,-2.74,-4.09,-0.08,0.02,0.01,-40.29,17.28,-79.5129142.00,-8.56,-2.58,-4.49,-0.07,-0.02,-0.01,-40.29,17.28,-79.5129193.00,-8.54,-2.71,-4.19,-0.04,0.01,-0.04,-40.29,17.28,-79.5129245.00,-9.25,-2.69,-4.73,-0.06,-0.05,-0.02,-41.84,17.80,-80.0129296.00,-8.63,-2.70,-4.20,-0.08,-0.13,-0.04,-41.84,17.80,-80.0129347.00,-8.84,-2.58,-4.21,-0.05,-0.05,0.01,-39.78,16.07,-80.3429399.00,-8.67,-2.76,-3.93,-0.13,-0.10,0.02,-39.78,16.07,-80.3429450.00,-8.84,-2.82,-3.99,-0.13,-0.07,0.03,-40.12,16.76,-80.0129501.00,-8.72,-2.68,-4.36,-0.17,-0.06,0.01,-40.12,16.76,-80.0129553.00,-8.67,-2.71,-4.21,-0.17,-0.05,0.01,-40.12,16.76,-80.0129605.00,-8.80,-2.73,-4.36,-0.20,-0.04,0.00,-40.29,16.24,-79.5129656.00,-8.68,-2.62,-4.11,-0.21,-0.00,0.01,-40.29,16.24,-79.5129708.00,-8.85,-2.96,-4.43,-0.19,0.02,0.02,-42.19,15.03,-79.6829759.00,-8.50,-2.18,-3.99,-0.22,0.08,-0.01,-42.19,15.03,-79.6829810.00,-8.59,-2.55,-4.21,-0.19,0.02,0.03,-42.19,15.03,-79.6829863.00,-8.72,-2.62,-4.36,-0.17,-0.01,0.02,-38.92,17.28,-80.5129914.00,-8.79,-2.73,-3.98,-0.15,0.04,0.01,-38.92,17.28,-80.5129965.00,-8.68,-2.61,-4.18,-0.19,-0.04,0.04,-40.64,16.24,-79.8430017.00,-8.62,-2.78,-4.32,-0.13,-0.05,0.05,-40.64,16.24,-79.8430068.00,-8.61,-2.58,-4.30,-0.11,-0.06,0.02,-40.64,16.93,-78.8430119.00,-8.88,-2.64,-4.18,-0.20,-0.13,0.00,-40.64,16.93,-78.8430172.00,-8.75,-2.64,-4.18,-0.21,-0.09,0.01,-40.64,16.93,-78.8430223.00,-8.64,-2.58,-3.98,-0.29,-0.11,0.03,-40.47,15.72,-79.6830274.00,-9.11,-2.83,-4.74,-0.33,-0.14,0.06,-40.47,15.72,-79.6830326.00,-8.17,-2.42,-4.55,-0.31,-0.05,0.06,-41.15,16.07,-78.3530377.00,-8.64,-2.79,-4.65,-0.13,-0.03,0.05,-41.15,16.07,-78.3530428.00,-8.65,-2.53,-4.29,-0.18,-0.01,0.00,-41.15,16.07,-78.3530481.00,-8.67,-2.52,-4.63,-0.14,-0.03,0.03,-41.67,17.62,-78.5130532.00,-8.65,-2.65,-4.39,-0.10,-0.01,0.03,-41.67,17.62,-78.5130583.00,-8.67,-2.55,-4.41,-0.10,-0.02,0.02,-41.67,17.62,-78.5130635.00,-8.78,-1.94,-3.33,0.26,-0.11,0.14,-41.67,17.62,-78.5130687.00,-9.61,-2.72,-4.96,-0.18,-0.29,0.24,-41.67,17.62,-78.5130737.00,-9.06,-3.07,-4.76,-0.21,-0.02,0.31,-40.47,17.11,-78.0130790.00,-8.28,-3.16,-4.54,-0.21,0.02,0.27,-40.47,17.11,-78.0130841.00,-7.99,-3.08,-4.43,-0.20,0.09,0.08,-40.98,19.01,-77.8530892.00,-8.11,-2.98,-4.55,-0.19,0.08,0.00,-40.98,19.01,-77.8530945.00,-8.33,-2.88,-4.53,-0.18,0.03,-0.03,-41.15,18.83,-79.6830996.00,-8.33,-2.85,-4.46,-0.15,0.00,-0.01,-41.15,18.83,-79.6831047.00,-8.48,-2.86,-4.33,-0.18,-0.02,-0.02,-41.15,18.83,-79.6831098.00,-8.50,-2.90,-4.40,-0.17,-0.03,-0.01,-41.67,17.62,-78.8431149.00,-8.60,-2.91,-4.42,-0.19,-0.05,-0.01,-41.67,17.62,-78.8431202.00,-8.47,-2.90,-4.45,-0.19,-0.05,-0.03,-39.60,17.62,-79.8431253.00,-8.71,-2.90,-4.73,-0.19,-0.09,-0.03,-39.60,17.62,-79.8431304.00,-8.60,-2.82,-4.43,-0.18,-0.07,-0.01,-39.60,17.62,-79.8431356.00,-8.53,-2.72,-4.47,-0.17,-0.05,-0.00,-40.47,18.49,-79.3431407.00,-8.44,-2.71,-4.47,-0.18,-0.06,-0.02,-40.47,18.49,-79.3431459.00,-8.61,-2.59,-4.58,-0.17,-0.10,-0.08,-41.84,18.83,-78.3531511.00,-8.62,-2.63,-4.58,-0.14,-0.09,-0.02,-41.84,18.83,-78.3531563.00,-7.97,-2.29,-4.33,-0.07,0.11,-0.17,-41.84,18.83,-78.3531614.00,-9.27,-3.43,-5.33,-0.00,-0.10,0.22,-42.88,16.76,-79.0131666.00,-8.62,-2.85,-4.33,-0.02,0.05,0.03,-42.88,16.76,-79.0131718.00,-8.62,-2.69,-4.00,-0.12,-0.02,0.01,-40.47,16.41,-79.0131769.00,-8.63,-2.55,-4.58,-0.23,-0.12,0.03,-40.47,16.41,-79.0131821.00,-8.61,-2.73,-4.41,-0.12,0.00,0.08,-40.64,17.62,-78.5131873.00,-8.61,-2.78,-4.33,-0.21,-0.07,0.08,-40.64,17.62,-78.5131924.00,-8.57,-2.76,-4.40,-0.17,-0.02,0.07,-40.64,17.62,-78.5131977.00,-8.58,-2.73,-4.57,-0.33,-0.12,0.03,-39.78,17.11,-78.0132028.00,-8.54,-2.54,-4.87,-0.20,-0.11,0.06,-39.78,17.11,-78.0132080.00,-8.54,-2.41,-3.94,-0.14,-0.13,0.07,-42.02,19.01,-76.5232132.00,-8.48,-2.54,-5.13,-0.29,-0.26,0.11,-42.02,19.01,-76.5232184.00,-8.38,-2.91,-4.89,-0.60,-0.29,0.29,-42.02,19.01,-76.5232235.00,-8.29,-2.82,-5.08,-0.79,-0.32,0.22,-41.15,18.14,-77.3532288.00,-8.19,-2.88,-5.56,-0.79,-0.18,0.17,-41.15,18.14,-77.3532339.00,-8.21,-2.48,-5.85,-0.95,-0.01,0.12,-40.81,19.18,-76.0232390.00,-8.17,-2.30,-5.06,-0.87,0.06,0.04,-40.81,19.18,-76.0232443.00,-8.18,-2.08,-5.76,-0.97,-0.11,0.09,-41.50,18.49,-76.0232494.00,-8.17,-1.91,-5.48,-0.84,-0.08,0.08,-41.50,18.49,-76.0232545.00,-8.15,-1.81,-5.96,-0.54,-0.05,0.04,-41.50,18.49,-76.0232598.00,-8.15,-1.66,-5.57,-0.58,-0.02,0.01,-40.81,17.80,-74.3532649.00,-8.16,-1.37,-6.03,-0.47,-0.06,0.00,-40.81,17.80,-74.3532700.00,-8.16,-1.57,-5.65,-0.24,-0.01,0.05,-40.81,16.41,-75.0232753.00,-8.18,-1.44,-5.90,-0.29,-0.04,0.02,-40.81,16.41,-75.0232804.00,-8.16,-1.46,-5.78,-0.31,-0.02,0.01,-40.81,16.41,-75.0232856.00,-8.16,-1.31,-5.96,-0.35,-0.01,-0.02,-41.84,17.11,-74.3532908.00,-8.19,-1.20,-5.68,-0.20,0.02,0.01,-41.84,17.11,-74.3532960.00,-8.19,-1.31,-6.00,-0.22,-0.04,0.02,-40.47,17.11,-73.6933011.00,-8.19,-1.23,-5.66,-0.17,0.01,0.01,-40.47,17.11,-73.6933063.00,-8.19,-1.22,-5.79,-0.12,-0.02,0.01,-40.47,17.11,-73.6933114.00,-8.22,-1.21,-5.89,-0.15,-0.01,0.01,-39.95,15.90,-74.5233166.00,-8.20,-1.25,-5.64,-0.18,-0.02,0.00,-39.95,15.90,-74.5233218.00,-8.22,-1.19,-5.80,-0.18,-0.03,0.00,-40.81,16.07,-73.6933270.00,-8.21,-1.13,-5.71,-0.21,-0.05,-0.04,-40.81,16.07,-73.6933321.00,-8.20,-1.23,-5.66,-0.14,-0.03,-0.01,-42.19,16.76,-75.0233372.00,-8.20,-1.14,-5.75,-0.20,-0.10,-0.04,-42.19,16.76,-75.0233423.00,-8.18,-0.98,-6.00,-0.19,-0.08,-0.03,-42.19,16.76,-75.0233475.00,-8.18,-1.06,-5.75,-0.17,-0.05,-0.01,-40.98,15.55,-75.1933526.00,-8.17,-0.96,-5.93,-0.16,-0.06,-0.02,-40.98,15.55,-75.1933577.00,-8.16,-1.22,-5.56,-0.12,-0.06,-0.05,-40.98,15.55,-75.1933630.00,-8.16,-0.77,-6.18,-0.14,-0.13,-0.09,-40.81,15.72,-74.6933681.00,-8.13,-0.97,-5.77,-0.15,-0.00,-0.04,-40.81,15.72,-74.6933732.00,-8.14,-0.73,-5.97,-0.21,-0.06,-0.04,-40.98,15.55,-73.1933785.00,-8.13,-0.87,-5.79,-0.18,-0.04,-0.00,-40.98,15.55,-73.1933836.00,-8.13,-0.80,-6.04,-0.19,-0.05,-0.00,-40.47,14.69,-74.3533888.00,-8.13,-0.88,-5.80,-0.18,-0.03,0.01,-40.47,14.69,-74.3533941.00,-8.13,-0.74,-6.03,-0.21,-0.05,-0.01,-40.47,14.69,-74.3533992.00,-8.24,-0.70,-5.90,-0.24,-0.05,0.01,-40.47,14.34,-73.0234043.00,-8.13,-0.96,-6.06,-0.23,0.04,0.12,-40.47,14.34,-73.0234096.00,-8.01,-0.23,-6.22,-0.24,0.08,0.14,-41.15,15.72,-74.3534148.00,-8.45,-0.66,-6.84,-0.22,-0.05,0.11,-41.15,15.72,-74.3534199.00,-8.00,-1.44,-5.75,-0.14,0.06,0.12,-41.15,15.72,-74.3534252.00,-8.01,-1.23,-5.32,-0.07,0.11,0.07,-42.02,15.20,-73.1934303.00,-8.29,-0.42,-6.53,-0.09,-0.02,0.02,-42.02,15.20,-73.1934355.00,-8.16,-0.75,-5.76,0.01,0.11,0.03,-42.02,15.20,-73.1934408.00,-7.98,-0.60,-5.93,-0.06,0.01,0.01,-42.02,15.20,-73.1934459.00,-7.99,-0.87,-6.47,-0.01,-0.07,-0.02,-42.02,15.20,-73.1934510.00,-7.91,-1.20,-4.49,0.05,0.02,-0.06,-41.67,14.86,-75.1934563.00,-8.65,-1.21,-4.61,-0.05,0.06,0.00,-41.67,14.86,-75.1934614.00,-8.30,-0.86,-5.35,-0.20,-0.18,0.01,-40.98,14.86,-76.1834666.00,-8.32,-0.95,-6.03,-0.18,-0.07,0.02,-40.98,14.86,-76.1834719.00,-8.16,-0.70,-5.73,-0.18,-0.02,0.02,-39.60,14.86,-74.1934770.00,-8.46,-0.95,-5.78,-0.26,-0.10,0.03,-39.60,14.86,-74.1934821.00,-8.48,-0.98,-5.62,-0.25,-0.03,0.04,-39.60,14.86,-74.1934874.00,-8.36,-0.85,-5.54,-0.27,0.03,0.04,-41.50,14.00,-74.6934925.00,-8.26,-1.23,-5.59,-0.22,0.03,0.03,-41.50,14.00,-74.6934977.00,-8.16,0.67,-6.34,-0.29,0.02,0.00,-40.98,14.17,-74.8535030.00,-7.82,-0.94,-6.43,-0.26,-0.07,0.04,-40.98,14.17,-74.8535081.00,-8.20,-0.96,-5.89,-0.18,0.06,0.03,-40.98,14.17,-74.8535133.00,-8.09,-0.76,-6.13,-0.22,-0.02,0.01,-39.60,13.48,-74.8535186.00,-8.14,-0.84,-6.16,-0.14,-0.03,0.03,-39.60,13.48,-74.8535237.00,-8.26,-0.79,-5.92,-0.17,0.03,-0.00,-42.02,14.51,-74.8535288.00,-8.27,-0.63,-5.54,-0.11,0.06,0.00,-42.02,14.51,-74.8535341.00,-8.28,-0.64,-5.74,-0.13,-0.03,0.01,-42.02,14.51,-74.8535392.00,-8.31,-0.72,-5.83,-0.12,0.06,0.02,-40.12,14.00,-74.6935443.00,-8.32,-0.69,-5.64,-0.15,0.05,-0.02,-40.12,14.00,-74.6935496.00,-8.34,-0.57,-5.61,-0.14,0.05,-0.02,-40.47,13.65,-75.0235547.00,-8.35,-0.48,-5.68,-0.12,0.02,-0.00,-40.47,13.65,-75.0235599.00,-8.47,-0.56,-5.19,-0.08,0.01,0.02,-41.50,14.34,-75.6835651.00,-8.89,-0.54,-5.76,-0.24,-0.19,0.11,-41.50,14.34,-75.6835702.00,-8.10,-0.69,-5.57,-0.24,-0.04,0.17,-41.50,14.34,-75.6835755.00,-7.95,-0.66,-5.93,-0.26,-0.01,0.09,-41.50,12.96,-76.3535806.00,-8.28,-0.73,-5.83,-0.20,0.04,0.01,-41.50,12.96,-76.3535857.00,-8.36,-0.72,-5.70,-0.18,0.02,0.01,-42.36,14.17,-75.1935910.00,-8.36,-0.60,-5.66,-0.18,-0.00,0.00,-42.36,14.17,-75.1935961.00,-8.52,-0.56,-5.56,-0.16,-0.03,0.03,-42.36,14.17,-75.1936013.00,-7.96,-0.63,-5.42,-0.19,-0.00,0.03,-42.02,13.82,-75.5236065.00,-8.33,-0.51,-5.98,-0.18,-0.03,-0.02,-42.02,13.82,-75.5236117.00,-8.44,-0.59,-5.69,-0.16,-0.05,-0.01,-43.05,14.17,-77.5136168.00,-8.22,-0.57,-5.59,-0.19,-0.00,-0.00,-43.05,14.17,-77.5136221.00,-8.94,-0.52,-5.67,-0.17,-0.00,0.01,-41.50,14.34,-76.0236272.00,-8.38,-0.46,-5.80,-0.14,-0.02,0.02,-41.50,14.34,-76.0236324.00,-8.41,-0.72,-5.52,-0.06,0.04,0.03,-41.50,14.34,-76.0236377.00,-8.40,-0.54,-5.58,-0.12,0.02,-0.00,-41.84,14.69,-74.6936429.00,-8.43,-0.51,-5.48,-0.10,0.02,-0.00,-41.84,14.69,-74.6936480.00,-8.43,-0.50,-5.50,-0.12,-0.01,0.01,-40.98,14.51,-75.5236533.00,-8.43,-0.54,-5.54,-0.10,-0.01,0.03,-40.98,14.51,-75.5236585.00,-8.43,-0.55,-5.47,-0.14,-0.04,0.02,-41.67,14.17,-75.8536636.00,-8.43,-0.52,-5.66,-0.15,-0.03,0.03,-41.67,14.17,-75.8536689.00,-8.45,-0.62,-5.52,-0.17,-0.02,0.02,-41.67,14.17,-75.8536740.00,-8.44,-0.58,-5.51,-0.17,-0.03,0.00,-40.12,15.38,-76.0236791.00,-8.43,-0.43,-5.64,-0.20,-0.03,0.01,-40.12,15.38,-76.0236844.00,-8.43,-0.59,-5.55,-0.14,-0.07,0.06,-42.53,13.65,-77.3536896.00,-8.43,-0.65,-5.71,-0.14,-0.06,0.04,-42.53,13.65,-77.3536947.00,-8.46,-0.61,-5.82,-0.14,0.11,0.00,-42.53,13.65,-77.3537000.00,-8.47,-0.55,-5.35,-0.13,0.17,-0.01,-41.50,14.69,-77.0137051.00,-8.53,-0.56,-5.18,-0.15,0.11,-0.02,-41.50,14.69,-77.0137103.00,-8.56,-0.52,-5.16,-0.18,0.07,-0.02,-42.53,12.96,-77.0137156.00,-8.56,-0.38,-5.30,-0.24,0.02,-0.04,-42.53,12.96,-77.0137207.00,-8.61,-0.38,-5.21,-0.14,0.03,0.02,-42.53,12.96,-77.0137258.00,-8.62,-0.49,-5.10,-0.16,-0.00,0.02,-41.50,13.65,-77.6837311.00,-8.61,-0.45,-5.25,-0.11,0.01,0.04,-41.50,13.65,-77.6837363.00,-8.61,-0.55,-5.09,-0.16,-0.03,0.03,-41.84,12.61,-78.6837414.00,-8.63,-0.42,-5.45,-0.15,-0.01,0.03,-41.84,12.61,-78.6837467.00,-8.62,-0.43,-5.29,-0.17,-0.01,0.00,-42.02,13.82,-77.8537519.00,-8.64,-0.39,-5.23,-0.14,0.00,0.02,-42.02,13.82,-77.8537570.00,-8.64,-0.44,-5.22,-0.15,-0.02,0.02,-42.02,13.82,-77.8537623.00,-8.65,-0.40,-5.27,-0.13,0.00,0.02,-41.67,13.13,-78.1837674.00,-8.67,-0.44,-5.09,-0.16,-0.03,0.01,-41.67,13.13,-78.1837726.00,-8.65,-0.45,-5.15,-0.13,-0.01,0.02,-42.70,13.82,-79.1837779.00,-8.66,-0.47,-5.06,-0.18,-0.06,0.00,-42.70,13.82,-79.1837831.00,-8.65,-0.35,-5.22,-0.17,-0.02,0.02,-42.70,13.82,-79.1837882.00,-8.63,-0.36,-5.05,-0.20,-0.05,0.02,-42.53,13.30,-78.0137934.00,-8.65,-0.34,-5.45,-0.16,-0.05,0.03,-42.53,13.30,-78.0137985.00,-8.65,-0.45,-5.17,-0.16,-0.02,0.01,-40.47,12.61,-79.0138038.00,-8.65,-0.26,-5.35,-0.16,-0.02,0.01,-40.47,12.61,-79.0138090.00,-8.65,-0.40,-5.07,-0.14,-0.04,0.02,-42.36,13.48,-77.5138141.00,-8.65,-0.33,-5.38,-0.14,-0.04,0.03,-42.36,13.48,-77.5138194.00,-8.64,-0.35,-5.21,-0.15,-0.03,0.02,-42.36,13.48,-77.5138246.00,-8.64,-0.42,-5.10,-0.14,-0.05,0.03,-40.98,15.55,-76.8538297.00,-8.64,-0.35,-5.36,-0.16,-0.05,0.02,-40.98,15.55,-76.8538350.00,-8.66,-0.43,-5.11,-0.14,0.00,0.02,-41.50,13.30,-77.6838401.00,-8.64,-0.36,-5.24,-0.16,-0.04,0.00,-41.50,13.30,-77.6838454.00,-8.66,-0.36,-5.04,-0.14,-0.02,0.03,-41.50,13.30,-77.6838507.00,-8.63,-0.33,-5.41,-0.16,-0.07,0.02,-43.22,14.34,-78.6838559.00,-8.64,-0.45,-5.16,-0.13,-0.02,0.02,-43.22,14.34,-78.6838612.00,-8.64,-0.23,-5.32,-0.18,-0.05,0.00,-41.15,14.00,-78.3538665.00,-8.61,-0.37,-5.11,-0.15,-0.04,0.03,-41.15,14.00,-78.3538717.00,-8.63,-0.33,-5.22,-0.16,-0.07,0.03,-41.15,14.00,-78.3538769.00,-8.63,-0.32,-5.43,-0.23,-0.11,0.01,-41.67,13.13,-78.1838822.00,-9.07,-0.16,-5.54,-0.19,-0.05,0.03,-41.67,13.13,-78.1838874.00,-9.48,-0.73,-5.73,-0.29,0.00,0.17,-40.98,13.82,-77.1838927.00,-8.81,-1.41,-4.58,-0.33,0.00,0.19,-40.98,13.82,-77.1838980.00,-8.19,-0.12,-6.31,-0.31,-0.07,0.16,-42.70,14.51,-79.1839032.00,-8.25,-0.26,-5.63,-0.21,0.09,0.08,-42.70,14.51,-79.1839083.00,-8.56,-0.20,-5.20,-0.08,0.12,0.02,-42.70,14.51,-79.1839136.00,-8.59,-0.88,-4.68,-0.04,0.06,0.04,-42.53,14.00,-78.6839188.00,-8.75,-0.17,-5.33,-0.07,-0.04,0.01,-42.53,14.00,-78.6839240.00,-7.69,-0.73,-4.95,-0.05,-0.04,0.01,-41.67,14.51,-79.5139293.00,-8.74,-0.29,-5.31,-0.01,-0.06,-0.08,-41.67,14.51,-79.5139344.00,-9.10,-0.04,-4.89,-0.02,-0.10,-0.11,-41.67,14.51,-79.5139397.00,-8.88,-0.45,-4.54,-0.08,-0.04,-0.08,-42.53,14.34,-79.0139450.00,-8.89,-0.31,-4.86,-0.16,-0.07,-0.01,-42.53,14.34,-79.0139501.00,-8.85,-0.49,-5.13,-0.20,-0.09,0.01,-41.67,13.82,-80.1839553.00,-8.78,-0.38,-5.02,-0.21,-0.03,0.01,-41.67,13.82,-80.1839606.00,-8.87,-0.39,-5.45,-0.21,-0.04,-0.00,-41.67,13.82,-80.1839658.00,-8.82,-0.01,-4.89,-0.21,-0.02,0.01,-42.53,13.30,-79.3439710.00,-8.79,-0.31,-4.89,-0.22,-0.01,0.01,-42.53,13.30,-79.3439763.00,-8.78,-0.82,-5.03,-0.23,-0.06,0.02,-42.36,13.82,-77.8539815.00,-8.55,-0.55,-5.20,-0.23,-0.09,0.03,-42.36,13.82,-77.8539866.00,-8.61,-0.59,-5.50,-0.16,-0.07,0.08,-41.84,14.69,-78.6839919.00,-8.64,-0.48,-5.55,-0.17,-0.08,0.04,-41.84,14.69,-78.6839971.00,-8.71,-0.34,-4.84,-0.15,0.03,-0.01,-40.98,14.86,-77.5140023.00,-8.71,-0.11,-5.04,-0.18,-0.04,-0.01,-40.98,14.86,-77.5140076.00,-8.71,-0.34,-5.10,-0.11,-0.01,0.04,-40.98,14.86,-77.5140128.00,-8.73,-0.21,-5.05,-0.16,0.01,0.02,-42.88,12.27,-78.6840181.00,-8.72,-0.24,-4.94,-0.15,-0.01,0.03,-42.88,12.27,-78.6840233.00,-8.73,-0.23,-5.25,-0.14,-0.03,0.04,-41.15,14.00,-79.0140284.00,-8.74,-0.39,-4.98,-0.12,0.00,0.03,-41.15,14.00,-79.0140336.00,-8.72,-0.24,-5.07,-0.16,-0.02,0.01,-41.15,14.00,-79.0140388.00,-8.73,-0.24,-5.11,-0.14,-0.02,0.02,-42.53,14.00,-79.3440439.00,-8.75,-0.27,-5.06,-0.15,-0.03,0.02,-42.53,14.00,-79.3440492.00,-8.75,-0.32,-4.93,-0.12,-0.01,0.04,-42.02,14.17,-79.5140543.00,-8.74,-0.30,-5.11,-0.16,-0.05,0.03,-42.02,14.17,-79.5140596.00,-8.73,-0.42,-4.87,-0.14,-0.00,0.03,-42.02,14.17,-79.5140649.00,-8.74,-0.16,-5.04,-0.13,-0.06,0.01,-42.53,12.96,-80.0140701.00,-8.72,-0.35,-5.07,-0.05,-0.06,0.04,-42.53,12.96,-80.0140754.00,-8.72,-0.33,-5.35,-0.08,-0.03,0.02,-43.05,13.48,-79.1840807.00,-8.79,-0.40,-4.53,0.01,0.01,0.01,-43.05,13.48,-79.1840859.00,-8.78,-0.40,-4.78,-0.16,-0.23,0.08,-40.64,14.17,-78.5140912.00,-8.74,-0.42,-5.21,-0.21,-0.08,0.07,-40.64,14.17,-78.5140965.00,-8.71,-0.31,-5.68,-0.21,-0.11,0.09,-40.64,14.17,-78.5141017.00,-8.52,-0.51,-5.50,-0.15,-0.06,0.10,-42.36,12.79,-79.1841070.00,-8.50,-0.55,-5.38,-0.13,-0.03,0.07,-42.36,12.79,-79.1841124.00,-8.46,-0.58,-5.18,-0.15,-0.03,0.05,-42.36,15.55,-78.1841176.00,-8.56,-0.46,-5.06,-0.17,0.00,0.02,-42.36,15.55,-78.1841228.00,-8.59,-0.36,-5.15,-0.18,-0.01,0.01,-42.36,15.55,-78.1841282.00,-8.50,-0.41,-5.07,-0.19,-0.02,-0.02,-42.02,14.86,-77.5141333.00,-8.65,-0.28,-4.92,-0.23,0.05,-0.06,-42.02,14.86,-77.5141385.00,-9.39,-0.22,-5.76,-0.24,-0.09,-0.00,-42.53,14.34,-79.0141438.00,-8.61,-0.33,-5.10,-0.14,-0.03,0.03,-42.53,14.34,-79.0141490.00,-8.64,-0.43,-5.31,-0.11,-0.03,0.01,-42.88,14.00,-78.6841543.00,-8.65,-0.31,-5.22,-0.12,-0.01,0.01,-42.88,14.00,-78.6841596.00,-8.66,-0.36,-5.11,-0.13,-0.01,0.01,-42.88,14.00,-78.6841648.00,-8.67,-0.40,-5.13,-0.14,-0.03,0.01,-42.53,14.34,-78.0141700.00,-8.67,-0.32,-5.30,-0.17,-0.03,-0.00,-42.53,14.34,-78.0141753.00,-8.65,-0.30,-5.11,-0.14,0.01,0.02,-42.53,14.34,-78.3541805.00,-8.69,-0.32,-5.08,-0.11,-0.01,0.02,-42.53,14.34,-78.3541858.00,-8.70,-0.35,-5.24,-0.12,-0.01,0.03,-42.70,13.48,-79.5141911.00,-8.71,-0.30,-5.16,-0.14,0.02,0.02,-42.70,13.48,-79.5141963.00,-8.69,-0.41,-5.08,-0.14,0.02,0.03,-42.70,13.48,-79.5142017.00,-8.72,-0.28,-5.09,-0.16,-0.03,0.01,-43.22,14.00,-78.0142072.00,-8.72,-0.40,-5.02,-0.11,-0.02,0.04,-43.22,14.00,-78.0142122.00,-8.72,-0.38,-5.09,-0.14,-0.04,0.03,-42.70,14.51,-80.5142173.00,-8.70,-0.40,-5.00,-0.16,-0.05,0.03,-42.70,14.51,-80.5142225.00,-8.72,-0.27,-5.17,-0.20,-0.06,0.02,-42.70,14.51,-80.5142275.00,-8.72,-0.40,-5.12,-0.18,-0.05,0.02,-41.33,13.48,-77.5142325.00,-8.70,-0.39,-5.21,-0.18,-0.03,0.01,-41.33,13.48,-77.5142377.00,-8.68,-0.24,-5.15,-0.17,-0.04,0.01,-42.02,14.51,-78.1842427.00,-8.68,-0.31,-5.18,-0.16,-0.04,0.02,-42.02,14.51,-78.1842478.00,-8.67,-0.29,-5.03,-0.18,-0.05,0.01,-42.02,14.51,-78.1842528.00,-8.67,-0.23,-5.24,-0.18,-0.07,0.01,-43.91,14.34,-79.0142578.00,-8.67,-0.31,-4.98,-0.16,-0.02,0.01,-43.91,14.34,-79.0142630.00,-8.69,-0.18,-5.21,-0.20,-0.06,0.01,-42.02,14.86,-79.1842680.00,-8.67,-0.32,-5.18,-0.17,-0.06,0.03,-42.02,14.86,-79.1842730.00,-8.70,-0.34,-5.19,-0.20,-0.05,0.01,-42.02,14.86,-79.1842782.00,-9.41,0.32,-5.86,-0.26,-0.03,-0.00,-43.57,12.96,-79.0142832.00,-8.85,0.11,-5.94,-0.27,-0.05,0.05,-43.57,12.96,-79.0142883.00,-9.05,0.29,-5.72,-0.26,0.05,0.12,-42.36,15.20,-78.1842934.00,-8.53,0.50,-5.66,-0.25,-0.05,0.02,-42.36,15.20,-78.1842984.00,-8.50,0.11,-4.85,-0.12,0.08,0.04,-42.36,15.20,-78.1843035.00,-8.73,-0.22,-4.86,-0.17,-0.02,-0.00,-42.02,14.86,-78.1843087.00,-8.73,-0.16,-5.13,-0.17,-0.04,0.01,-42.02,14.86,-78.1843137.00,-8.74,-0.19,-5.05,-0.16,-0.04,0.01,-42.53,13.65,-80.3443188.00,-8.74,-0.16,-5.15,-0.15,-0.03,0.02,-42.53,13.65,-80.3443240.00,-8.73,-0.19,-5.10,-0.19,-0.06,-0.01,-41.15,13.30,-79.0143290.00,-8.75,-0.12,-5.15,-0.18,-0.03,0.01,-41.15,13.30,-79.0143341.00,-8.84,-0.20,-5.13,-0.16,-0.05,0.07,-41.15,13.30,-79.0143393.00,-8.84,0.75,-5.93,-0.21,-0.03,0.09,-43.05,13.48,-77.8543443.00,-8.77,0.18,-5.48,-0.21,-0.02,0.06,-43.05,13.48,-77.8543493.00,-8.75,-0.09,-5.01,-0.14,0.07,0.01,-42.36,14.86,-78.1843545.00,-8.74,-0.17,-4.72,-0.14,-0.02,-0.00,-42.36,14.86,-78.1843595.00,-8.75,-0.19,-5.21,-0.12,-0.05,0.02,-42.36,14.86,-78.1843646.00,-8.76,-0.26,-5.05,-0.15,-0.00,0.01,-43.22,14.69,-78.0143697.00,-8.74,-0.01,-4.96,-0.17,-0.03,0.01,-43.22,14.69,-78.0143748.00,-8.76,-0.26,-4.97,-0.13,-0.04,0.03,-41.15,15.03,-78.0143799.00,-8.75,-0.17,-5.09,-0.16,-0.02,0.01,-41.15,15.03,-78.0143850.00,-8.74,-0.10,-5.01,-0.18,-0.02,0.00,-41.15,15.03,-78.0143901.00,-8.73,-0.31,-4.81,-0.12,-0.02,0.02,-42.88,14.69,-78.6843951.00,-8.76,-0.09,-5.23,-0.17,-0.05,0.01,-42.88,14.69,-78.6844003.00,-8.72,-0.12,-5.04,-0.13,-0.00,0.04,-43.05,14.17,-79.1844053.00,-8.68,-0.34,-5.24,-0.05,-0.08,0.10,-43.05,14.17,-79.1844104.00,-8.27,0.00,-5.17,-0.07,-0.03,0.07,-43.05,14.17,-79.1844156.00,-8.77,0.18,-5.44,-0.08,0.01,0.08,-42.19,14.34,-79.3444206.00,-8.93,-0.12,-4.75,-0.09,0.08,0.01,-42.19,14.34,-79.3444256.00,-8.78,-0.04,-4.76,-0.16,-0.06,-0.03,-42.36,14.17,-79.5144308.00,-8.78,-0.22,-5.21,-0.11,-0.09,0.02,-42.36,14.17,-79.5144359.00,-8.75,-0.31,-5.11,-0.16,0.01,0.01,-42.36,14.17,-79.5144410.00,-8.78,-0.23,-4.89,-0.18,0.04,0.01,-42.70,15.55,-79.1844462.00,-8.80,-0.17,-5.04,-0.17,-0.02,0.02,-42.70,15.55,-79.1844512.00,-8.79,-0.34,-4.98,-0.11,-0.00,0.04,-41.67,14.17,-80.8444563.00,-8.61,-0.17,-5.56,-0.03,-0.29,0.07,-41.67,14.17,-80.8444615.00,-8.36,-0.90,-4.75,0.00,-0.05,0.02,-42.19,14.69,-80.0144665.00,-9.18,-0.28,-5.26,-0.09,-0.15,-0.03,-42.19,14.69,-80.0144715.00,-8.97,-0.34,-4.25,-0.10,0.08,0.00,-42.19,14.69,-80.0144766.00,-8.76,-0.09,-4.72,-0.16,-0.04,-0.02,-42.53,15.38,-78.3544817.00,-8.72,-0.32,-5.19,-0.10,-0.03,0.03,-42.53,15.38,-78.3544868.00,-8.73,-0.32,-5.00,-0.11,-0.02,0.04,-42.53,15.38,-78.3544919.00,-8.80,-0.32,-4.98,-0.16,-0.04,0.03,-42.02,13.82,-79.1844969.00,-8.82,-0.10,-4.95,-0.18,-0.04,0.01,-42.02,13.82,-79.1845021.00,-8.57,-0.73,-4.75,-0.20,0.05,-0.03,-41.84,14.34,-78.0145071.00,-8.71,-0.37,-4.56,-0.19,0.00,-0.03,-41.84,14.34,-78.0145121.00,-8.56,-0.44,-5.21,-0.18,-0.10,0.02,-41.67,14.51,-79.1845173.00,-8.71,-0.68,-5.56,-0.13,-0.11,0.08,-41.67,14.51,-79.1845224.00,-8.72,-0.22,-4.98,-0.15,0.10,0.01,-41.67,14.51,-79.1845274.00,-8.76,-0.25,-4.52,-0.15,0.01,0.01,-41.33,14.86,-79.1845326.00,-8.74,-0.27,-5.13,-0.12,-0.09,0.03,-41.33,14.86,-79.1845377.00,-8.73,-0.29,-5.12,-0.16,-0.06,0.02,-41.33,15.20,-80.8445428.00,-8.75,-0.19,-5.01,-0.17,-0.08,0.02,-41.33,15.20,-80.8445480.00,-9.19,-0.13,-4.91,-0.23,-0.04,-0.02,-41.33,15.20,-80.8445530.00,-8.61,0.03,-4.42,-0.24,-0.05,0.00,-43.05,13.82,-79.5145581.00,-8.93,-0.13,-5.60,-0.23,-0.07,0.05,-43.05,13.82,-79.5145633.00,-8.50,-0.43,-5.43,-0.18,-0.06,0.06,-42.36,13.48,-78.8445684.00,-8.61,-0.38,-5.63,-0.15,-0.05,0.03,-42.36,13.48,-78.8445734.00,-8.65,-0.34,-5.32,-0.14,0.00,0.02,-42.36,13.48,-78.8445787.00,-8.69,-0.22,-4.90,-0.13,0.01,0.02,-42.36,14.17,-77.5145837.00,-8.71,-0.09,-5.20,-0.16,-0.07,0.02,-42.36,14.17,-77.5145888.00,-8.87,-0.17,-5.19,-0.16,-0.02,0.03,-42.19,13.65,-77.6845940.00,-8.70,0.08,-5.01,-0.18,-0.00,0.03,-42.19,13.65,-77.6845990.00,-8.73,-0.16,-4.97,-0.20,-0.08,0.04,-42.19,13.65,-77.6846041.00,-8.53,-0.06,-5.45,-0.21,-0.10,0.05,-42.70,14.86,-78.5146093.00,-8.55,-0.44,-5.30,-0.16,-0.10,0.07,-42.70,14.86,-78.5146143.00,-8.61,-0.53,-5.47,-0.16,-0.08,0.04,-43.39,15.55,-78.8446194.00,-8.65,-0.15,-5.40,-0.17,-0.01,-0.00,-43.39,15.55,-78.8446246.00,-8.66,-0.25,-4.94,-0.14,-0.04,-0.00,-43.39,15.55,-78.8446296.00,-8.62,-0.19,-5.13,-0.24,-0.17,-0.03,-41.67,14.51,-77.8546347.00,-8.60,-0.10,-5.42,-0.23,-0.18,-0.03,-41.67,14.51,-77.8546399.00,-8.57,0.02,-5.48,-0.23,-0.13,-0.01,-42.19,16.07,-77.0146449.00,-8.56,-0.01,-5.29,-0.19,-0.12,0.02,-42.19,16.07,-77.0146500.00,-8.54,-0.05,-5.46,-0.20,-0.15,0.03,-43.22,15.03,-76.3546552.00,-8.95,0.07,-6.12,-0.18,-0.07,0.05,-43.22,15.03,-76.3546603.00,-8.75,0.02,-5.33,-0.20,-0.00,0.04,-43.22,15.03,-76.3546653.00,-8.45,0.06,-5.97,-0.17,-0.03,0.04,-41.84,14.34,-77.6846706.00,-8.29,-0.23,-5.00,-0.09,0.10,0.05,-41.84,14.34,-77.6846756.00,-8.54,-0.06,-5.49,-0.10,-0.02,0.01,-41.84,14.34,-77.6846807.00,-8.56,0.01,-5.37,-0.05,-0.02,0.02,-41.84,14.69,-77.0146859.00,-8.52,-0.43,-3.05,0.50,0.11,0.03,-41.84,14.69,-77.0146910.00,-10.07,0.49,-6.04,-0.26,-1.05,-0.06,-42.19,16.07,-76.6846961.00,-7.93,-0.65,-5.61,-0.13,-0.34,0.38,-42.19,16.07,-76.6847012.00,-7.30,-0.65,-6.06,-0.19,-0.05,0.21,-42.02,15.55,-74.8547062.00,-8.14,-0.56,-5.96,-0.15,0.10,-0.01,-42.02,15.55,-74.8547113.00,-8.45,-0.55,-5.71,-0.16,0.05,0.02,-42.02,15.55,-74.8547163.00,-8.00,-0.48,-5.55,-0.19,-0.03,0.05,-42.88,16.41,-75.6847214.00,-7.93,-0.44,-5.41,-0.21,-0.01,0.01,-42.88,16.41,-75.6847266.00,-8.52,-0.31,-5.72,-0.22,-0.11,-0.04,-42.02,16.59,-74.5247316.00,-8.39,-0.22,-6.08,-0.18,-0.02,0.03,-42.02,16.59,-74.5247367.00,-8.38,-0.34,-5.94,-0.12,-0.09,0.04,-42.02,16.59,-74.5247419.00,-8.09,-0.41,-5.64,-0.13,-0.05,0.01,-41.33,14.86,-73.8547469.00,-8.07,-0.34,-5.70,-0.16,-0.00,-0.03,-41.33,14.86,-73.8547520.00,-7.94,-0.30,-5.42,-0.18,0.07,-0.07,-42.88,15.72,-75.3547572.00,-10.42,-0.09,-3.13,-0.20,0.13,-0.15,-42.88,15.72,-75.3547623.00,-8.19,-0.23,-5.79,-0.13,0.02,-0.02,-42.88,15.72,-75.3547673.00,-8.34,-0.22,-6.16,-0.15,0.06,-0.00,-42.70,14.86,-75.5247726.00,-8.35,-0.14,-5.64,-0.16,0.08,-0.04,-42.70,14.86,-75.5247777.00,-8.38,-0.08,-5.72,-0.13,0.07,-0.01,-43.22,14.69,-75.3547827.00,-8.40,-0.22,-5.43,-0.14,0.04,0.02,-43.22,14.69,-75.3547880.00,-8.42,-0.12,-5.56,-0.17,-0.02,0.02,-41.50,15.72,-75.6847931.00,-8.43,-0.17,-5.62,-0.17,-0.03,0.03,-41.50,15.72,-75.6847981.00,-8.44,-0.11,-5.60,-0.18,-0.05,0.01,-41.50,15.72,-75.6848033.00,-8.41,-0.06,-5.68,-0.14,-0.03,0.02,-42.19,13.65,-76.0248084.00,-8.39,-0.07,-5.39,-0.08,-0.05,0.07,-42.19,13.65,-76.0248135.00,-8.39,-0.16,-5.43,-0.09,-0.11,0.09,-42.19,13.65,-76.0248187.00,-8.38,-0.34,-5.99,-0.12,-0.09,0.07,-42.02,15.20,-75.1948238.00,-8.37,-0.41,-5.76,-0.14,-0.00,0.03,-42.02,15.20,-75.1948289.00,-8.37,-0.12,-5.55,-0.17,-0.00,0.01,-40.47,15.38,-76.3548341.00,-8.39,-0.15,-5.68,-0.14,-0.05,0.04,-40.47,15.38,-76.3548392.00,-8.38,-0.25,-5.73,-0.12,-0.02,0.05,-42.19,16.41,-76.0248443.00,-8.39,-0.21,-5.55,-0.11,-0.03,0.06,-42.19,16.41,-76.0248495.00,-8.38,-0.34,-5.62,-0.12,-0.08,0.06,-42.19,16.41,-76.0248545.00,-8.37,-0.34,-5.78,-0.15,-0.06,0.03,-42.70,16.59,-74.8548596.00,-8.36,-0.33,-5.65,-0.16,-0.03,0.01,-42.70,16.59,-74.8548648.00,-8.37,-0.22,-5.65,-0.16,-0.03,0.01,-43.05,15.90,-74.8548699.00,-8.37,-0.26,-5.61,-0.16,-0.04,0.02,-43.05,15.90,-74.8548750.00,-8.35,-0.27,-5.68,-0.16,-0.04,0.02,-43.05,15.90,-74.8548802.00,-8.36,-0.29,-5.67,-0.15,-0.02,0.02,-42.19,15.72,-75.6848853.00,-8.36,-0.22,-5.60,-0.16,-0.02,0.02,-42.19,15.72,-75.6848904.00,-8.36,-0.31,-5.72,-0.15,-0.02,0.02,-43.05,14.86,-75.5248957.00,-8.36,-0.24,-5.63,-0.17,-0.03,0.00,-43.05,14.86,-75.5249007.00,-8.38,-0.21,-5.72,-0.17,-0.02,0.02,-43.05,14.86,-75.5249058.00,-8.34,-0.26,-5.50,-0.17,-0.04,0.01,-43.05,16.59,-75.1949110.00,-8.37,-0.22,-5.79,-0.16,-0.03,0.02,-43.05,16.59,-75.1949161.00,-8.35,-0.18,-5.64,-0.17,-0.04,0.01,-43.05,15.90,-76.1849212.00,-8.36,-0.18,-5.78,-0.16,-0.04,0.01,-43.05,15.90,-76.1849263.00,-8.34,-0.18,-5.68,-0.16,-0.05,0.02,-44.08,14.86,-75.5249314.00,-8.35,-0.17,-5.68,-0.15,-0.04,0.02,-44.08,14.86,-75.5249366.00,-8.34,-0.18,-5.75,-0.16,-0.05,0.02,-44.08,14.86,-75.5249417.00,-8.34,-0.13,-5.75,-0.14,-0.03,0.02,-43.22,14.00,-74.6949467.00,-8.34,-0.18,-5.72,-0.16,-0.05,0.02,-43.22,14.00,-74.6949519.00,-8.34,-0.12,-5.74,-0.16,-0.04,0.02,-43.22,14.00,-74.6949570.00,-8.32,-0.18,-5.68,-0.15,-0.04,0.03,-41.50,14.69,-75.0249620.00,-8.34,-0.13,-5.81,-0.18,-0.06,0.02,-41.50,14.69,-75.0249673.00,-8.36,-0.23,-5.66,-0.15,-0.03,0.03,-43.39,16.24,-74.5249723.00,-8.81,-0.24,-5.20,-0.20,0.05,0.10,-43.39,16.24,-74.5249774.00,-8.15,0.09,-5.75,-0.28,-0.04,0.08,-43.39,15.20,-74.1949826.00,-8.44,-0.75,-6.10,-0.25,-0.07,0.10,-43.39,15.20,-74.1949877.00,-8.07,-0.00,-6.14,-0.18,0.03,0.09,-43.39,15.20,-74.1949928.00,-8.39,-0.34,-5.28,-0.18,0.01,0.03,-43.57,15.03,-75.3549980.00,-8.38,-0.14,-5.78,-0.20,-0.05,-0.00,-43.57,15.03,-75.3550031.00,-8.40,-0.22,-5.69,-0.17,-0.02,-0.00,-41.33,15.20,-75.1950082.00,-8.55,-0.22,-5.56,-0.13,0.02,0.07,-41.33,15.20,-75.1950135.00,-8.52,-0.08,-5.87,-0.25,-0.04,0.02,-41.33,15.20,-75.1950186.00,-8.30,-0.22,-5.67,-0.26,-0.03,0.06,-43.39,15.55,-75.8550236.00,-8.42,-0.39,-5.55,-0.14,-0.01,0.10,-43.39,15.55,-75.8550288.00,-8.54,0.62,-6.36,-0.22,-0.01,0.01,-42.70,14.86,-76.8550339.00,-8.55,-0.32,-5.40,-0.11,0.09,0.06,-42.70,14.86,-76.8550390.00,-8.44,0.07,-5.76,-0.18,0.00,0.02,-42.70,14.86,-76.8550442.00,-8.51,-0.12,-5.44,-0.13,0.02,0.06,-42.53,15.72,-75.6850493.00,-8.26,-0.80,-4.75,-0.08,0.06,0.13,-42.53,15.72,-75.6850544.00,-8.43,0.02,-5.51,-0.08,0.12,0.03,-43.74,17.28,-76.5250596.00,-8.55,-0.30,-5.23,-0.10,0.09,0.05,-43.74,17.28,-76.5250647.00,-8.57,-0.21,-5.40,-0.13,0.03,0.00,-43.57,14.69,-78.0150698.00,-8.56,-0.24,-5.38,-0.10,0.04,0.02,-43.57,14.69,-78.0150750.00,-8.59,-0.27,-5.43,-0.11,0.04,0.03,-43.57,14.69,-78.0150801.00,-8.50,-0.40,-5.23,-0.05,0.07,0.04,-42.70,17.28,-77.8550852.00,-8.33,-0.14,-6.63,-0.08,-0.23,-0.05,-42.70,17.28,-77.8550904.00,-8.30,-0.44,-5.99,-0.05,-0.17,-0.12,-42.70,14.86,-77.1850955.00,-8.78,-0.07,-4.74,0.03,0.02,-0.01,-42.70,14.86,-77.1851006.00,-8.59,-0.01,-4.46,-0.13,0.11,-0.01,-42.70,14.86,-77.1851058.00,-8.72,-0.14,-5.07,-0.18,-0.10,0.00,-42.36,15.55,-76.8551109.00,-8.60,-0.27,-5.58,-0.12,-0.08,0.04,-42.36,15.55,-76.8551160.00,-8.66,-0.33,-5.32,-0.15,-0.01,0.01,-42.19,15.03,-77.6851213.00,-8.83,-0.27,-5.56,-0.17,-0.05,0.03,-42.19,15.03,-77.6851263.00,-8.46,-0.21,-5.30,-0.18,-0.02,0.02,-42.19,17.11,-77.6851314.00,-8.68,0.02,-5.40,-0.16,0.03,0.02,-42.19,17.11,-77.6851367.00,-8.59,0.11,-5.32,-0.19,-0.04,-0.01,-42.19,17.11,-77.6851418.00,-8.79,0.37,-5.56,-0.21,-0.03,-0.01,-43.57,16.41,-78.0151468.00,-8.69,-0.41,-5.18,-0.23,-0.02,-0.00,-43.57,16.41,-78.0151520.00,-8.51,-0.17,-4.96,-0.24,-0.01,0.00,-43.57,16.41,-78.0151570.00,-8.73,-0.41,-5.80,-0.28,-0.09,-0.01,-43.05,15.20,-78.1851623.00,-8.32,-0.11,-5.44,-0.23,-0.05,0.01,-43.05,15.20,-78.1851673.00,-8.70,0.06,-6.17,-0.23,0.02,0.04,-42.19,14.34,-77.3551724.00,-8.47,0.01,-5.90,-0.21,-0.10,-0.00,-42.19,14.34,-77.3551777.00,-8.57,-0.03,-5.58,-0.14,0.02,0.02,-43.74,15.55,-76.5251827.00,-8.58,-0.07,-5.05,-0.16,-0.00,-0.01,-43.74,15.55,-76.5251879.00,-8.60,0.19,-5.83,-0.13,-0.06,-0.00,-43.74,15.55,-76.5251931.00,-8.56,-0.09,-4.18,0.18,0.03,-0.05,-42.70,15.90,-76.8551982.00,-8.86,0.29,-5.44,-0.07,-0.20,0.04,-42.70,15.90,-76.8552033.00,-8.45,-0.36,-5.64,-0.08,-0.18,0.22,-43.57,14.69,-77.0152085.00,-8.25,-0.54,-5.15,-0.20,-0.01,0.05,-43.57,14.69,-77.0152136.00,-8.59,-0.39,-5.45,-0.20,0.07,0.04,-43.57,14.69,-77.0152188.00,-8.38,-0.20,-5.52,-0.22,-0.01,0.06,-42.88,16.41,-78.6852240.00,-8.33,-0.17,-5.39,-0.20,-0.02,0.05,-42.88,16.41,-78.6852291.00,-8.38,-0.20,-5.40,-0.19,-0.04,0.02,-42.88,14.69,-75.3552342.00,-8.48,-0.10,-5.44,-0.20,-0.03,0.02,-42.88,14.69,-75.3552395.00,-8.79,-0.14,-5.50,-0.18,-0.05,0.01,-42.88,14.69,-75.3552446.00,-8.46,-0.23,-5.32,-0.16,-0.04,0.03,-43.22,15.03,-76.3552497.00,-8.56,-0.19,-5.52,-0.18,-0.03,0.01,-43.22,15.03,-76.3552550.00,-8.43,-0.21,-5.43,-0.14,-0.03,0.04,-42.70,17.28,-77.1852600.00,-8.63,-0.18,-5.48,-0.14,-0.04,0.02,-42.70,17.28,-77.1852651.00,-8.42,-0.17,-5.40,-0.13,-0.02,0.04,-43.39,15.20,-76.8552704.00,-8.50,-0.19,-5.45,-0.15,-0.03,0.01,-43.39,15.20,-76.8552755.00,-8.36,-0.18,-5.41,-0.14,-0.01,0.03,-43.39,15.20,-76.8552806.00,-8.17,-0.24,-5.19,-0.17,0.05,-0.03,-43.05,16.93,-76.1852858.00,-10.40,0.12,-3.03,-0.20,0.12,-0.08,-43.05,16.93,-76.1852910.00,-8.49,-0.40,-4.89,-0.01,0.10,0.02,-44.08,16.59,-77.1852961.00,-8.63,-0.02,-5.65,-0.14,0.00,-0.00,-44.08,16.59,-77.1853013.00,-8.58,-0.24,-5.12,-0.11,0.04,-0.02,-44.08,16.59,-77.1853064.00,-8.62,0.00,-5.35,-0.14,0.02,-0.02,-43.39,16.24,-77.1853116.00,-8.61,-0.08,-5.28,-0.17,-0.01,0.00,-43.39,16.24,-77.1853168.00,-8.63,-0.10,-5.33,-0.14,0.00,0.00,-44.25,14.00,-78.6853219.00,-8.62,-0.03,-5.24,-0.15,0.01,0.01,-44.25,14.00,-78.6853270.00,-8.63,-0.13,-5.28,-0.16,-0.02,0.01,-44.25,14.00,-78.6853323.00,-8.64,-0.16,-5.12,-0.13,0.00,0.02,-43.22,15.03,-78.6853374.00,-8.65,-0.08,-5.36,-0.18,-0.01,0.02,-43.22,15.03,-78.6853425.00,-8.64,-0.10,-5.08,-0.18,0.01,0.02,-43.91,14.69,-77.3553478.00,-8.65,-0.01,-5.22,-0.19,-0.03,0.00,-43.91,14.69,-77.3553529.00,-8.68,0.06,-5.28,-0.16,-0.02,0.01,-43.39,14.86,-77.8553579.00,-8.64,-0.05,-5.10,-0.16,-0.02,0.02,-43.39,14.86,-77.8553632.00,-8.66,0.00,-5.20,-0.18,-0.06,0.01,-43.39,14.86,-77.8553683.00,-8.66,0.02,-5.32,-0.18,-0.05,0.02,-42.70,14.86,-78.1853734.00,-8.63,0.01,-5.20,-0.20,-0.06,0.01,-42.70,14.86,-78.1853786.00,-8.64,0.07,-5.33,-0.18,-0.05,0.01,-42.70,14.86,-78.1853836.00,-8.61,0.03,-5.21,-0.20,-0.07,0.01,-44.08,16.24,-77.8553888.00,-8.61,0.13,-5.19,-0.21,-0.05,0.02,-44.08,16.24,-77.8553939.00,-8.62,0.03,-5.23,-0.23,-0.06,0.02,-43.91,15.03,-78.0153989.00,-8.60,0.08,-5.42,-0.20,-0.06,0.01,-43.91,15.03,-78.0154042.00,-8.59,0.09,-5.17,-0.24,-0.07,-0.00,-42.70,15.20,-77.5154093.00,-8.60,0.12,-5.19,-0.23,-0.04,-0.01,-42.70,15.20,-77.5154144.00,-9.71,0.91,-6.00,-0.25,-0.05,0.04,-42.70,15.20,-77.5154196.00,-8.99,-0.12,-5.12,-0.34,0.11,0.21,-43.22,16.07,-78.6854247.00,-7.95,0.34,-5.65,-0.37,-0.03,0.16,-43.22,16.07,-78.6854299.00,-8.21,0.23,-5.49,-0.15,0.15,0.18,-43.22,17.11,-79.0154351.00,-8.41,-0.43,-4.68,-0.13,0.13,0.10,-43.22,17.11,-79.0154403.00,-8.69,1.58,-5.80,-0.22,0.07,0.06,-43.22,17.11,-79.0154454.00,-8.84,0.14,-5.18,-0.03,0.10,0.10,-42.70,16.59,-79.5154506.00,-8.57,-0.01,-4.65,0.00,0.09,0.05,-42.70,16.59,-79.5154558.00,-8.50,-0.28,-4.64,0.04,0.07,0.06,-43.22,16.41,-79.3454609.00,-8.05,-0.04,-4.28,-0.04,0.03,0.02,-43.22,16.41,-79.3454661.00,-8.72,0.34,-4.98,-0.05,-0.04,-0.00,-43.22,16.41,-79.3454713.00,-6.99,-0.75,-5.05,0.01,-0.20,-0.08,-43.39,16.59,-80.5154764.00,-8.83,-0.34,-5.13,0.10,-0.05,-0.04,-43.39,16.59,-80.5154817.00,-9.57,-0.51,-4.53,-0.06,0.02,-0.05,-42.19,16.07,-79.3454868.00,-8.85,0.09,-4.61,-0.24,-0.24,-0.01,-42.19,16.07,-79.3454919.00,-8.90,0.00,-5.59,-0.21,-0.24,0.03,-42.53,16.41,-80.0154971.00,-8.84,0.28,-4.92,-0.22,-0.09,-0.01,-42.53,16.41,-80.0155022.00,-8.92,-0.26,-4.94,-0.21,-0.15,0.03,-42.53,16.41,-80.0155074.00,-9.06,0.09,-5.36,-0.29,-0.14,-0.02,-44.94,16.41,-79.0155126.00,-8.58,0.18,-5.02,-0.29,-0.04,-0.01,-44.94,16.41,-79.0155177.00,-8.77,-0.64,-5.25,-0.29,-0.03,0.01,-44.43,17.28,-78.1855229.00,-8.99,0.16,-5.49,-0.35,-0.00,0.01,-44.43,17.28,-78.1855281.00,-8.14,-0.24,-5.38,-0.29,0.02,0.04,-44.43,17.28,-78.1855332.00,-8.88,-0.03,-5.93,-0.20,0.02,0.04,-43.39,16.24,-77.5155383.00,-8.61,0.11,-5.31,-0.17,-0.00,0.03,-43.39,16.24,-77.5155436.00,-8.70,0.16,-5.10,-0.16,0.02,0.02,-43.22,15.03,-80.0155487.00,-8.77,0.13,-5.00,-0.13,0.02,0.03,-43.22,15.03,-80.0155538.00,-8.79,0.06,-4.98,-0.15,-0.00,0.01,-44.43,15.90,-79.5155591.00,-8.78,0.24,-5.12,-0.16,0.02,0.01,-44.43,15.90,-79.5155642.00,-8.80,0.08,-4.72,-0.13,0.03,0.03,-44.43,15.90,-79.5155693.00,-8.81,0.28,-5.15,-0.16,-0.05,0.02,-43.22,17.45,-79.6855745.00,-8.81,0.04,-4.95,-0.09,-0.00,0.06,-43.22,17.45,-79.6855797.00,-8.81,0.19,-5.08,-0.18,-0.06,0.01,-43.74,15.90,-79.8455848.00,-8.82,0.19,-5.10,-0.11,0.02,0.04,-43.74,15.90,-79.8455900.00,-8.83,0.09,-4.90,-0.14,-0.02,0.03,-43.74,15.90,-79.8455952.00,-8.82,0.02,-4.90,-0.11,-0.00,0.04,-42.70,16.24,-79.8456003.00,-8.83,0.01,-4.80,-0.14,-0.02,0.03,-42.70,16.24,-79.8456054.00,-8.83,0.16,-5.02,-0.13,-0.05,0.03,-43.05,15.20,-78.5156105.00,-8.81,-0.01,-4.88,-0.09,-0.03,0.04,-43.05,15.20,-78.5156158.00,-8.82,-0.01,-4.90,-0.09,-0.00,0.03,-43.05,15.20,-78.5156209.00,-8.80,0.09,-4.79,-0.04,-0.01,0.02,-44.77,14.86,-79.5156260.00,-8.84,-0.16,-4.88,-0.03,0.03,0.05,-44.77,14.86,-79.5156312.00,-8.86,0.03,-5.04,-0.10,0.00,0.03,-44.08,16.24,-80.1856364.00,-8.85,-0.08,-4.72,-0.10,0.01,0.04,-44.08,16.24,-80.1856415.00,-8.87,-0.12,-4.76,-0.13,-0.02,0.02,-42.88,15.03,-80.6756468.00,-8.86,-0.00,-5.06,-0.13,-0.05,0.01,-42.88,15.03,-80.6756519.00,-8.86,-0.15,-4.77,-0.10,-0.03,0.03,-42.88,15.03,-80.6756570.00,-8.84,-0.09,-4.85,-0.15,-0.07,-0.00,-42.70,16.93,-80.8456622.00,-8.82,-0.28,-4.71,-0.07,-0.04,0.02,-42.70,16.93,-80.8456674.00,-8.82,0.10,-5.02,-0.05,-0.08,-0.02,-43.05,15.90,-79.1856725.00,-8.86,-0.39,-5.45,0.15,-0.04,-0.00,-43.05,15.90,-79.1856778.00,-9.16,-0.20,-4.62,1.23,-0.07,-0.18,-43.05,15.90,-79.1856829.00,-11.01,-0.01,-4.98,1.80,-0.51,-0.41,-41.84,15.38,-80.6756881.00,-7.79,-0.52,-4.66,0.22,-1.08,-0.84,-41.84,15.38,-80.6756933.00,-8.41,-1.84,-4.27,0.57,-1.18,-1.52,-41.33,11.40,-76.5256985.00,-4.57,-2.58,-5.71,0.25,-1.80,-3.10,-41.33,11.40,-76.5257036.00,-6.96,5.88,-7.82,0.17,0.09,-3.19,-41.33,11.40,-76.5257089.00,-5.73,3.25,-4.57,-0.05,0.54,-2.43,-38.06,-6.39,-68.3757140.00,-5.67,5.65,-7.25,-0.29,0.95,-2.61,-38.06,-6.39,-68.3757191.00,-6.62,4.22,-4.50,0.69,0.34,-1.84,-32.72,-17.62,-69.8657244.00,-6.39,5.31,-6.46,0.23,-0.09,-1.76,-32.72,-17.62,-69.8657295.00,-5.03,5.76,-5.57,-0.17,-0.24,-1.45,-25.48,-23.15,-68.5357347.00,-4.52,4.94,-5.23,0.20,-0.91,-1.60,-25.48,-23.15,-68.5357400.00,-4.78,8.63,-9.89,-0.05,-1.40,-1.30,-25.48,-23.15,-68.5357451.00,-3.48,7.97,-9.91,-2.78,0.21,-0.79,-19.11,-28.16,-64.3757503.00,-4.65,7.31,-5.43,-1.32,-0.46,-0.87,-19.11,-28.16,-64.3757556.00,-3.31,6.37,-7.16,1.36,0.13,-0.23,-14.81,-31.79,-68.8657607.00,-3.01,5.34,-3.13,-0.08,0.06,-0.55,-14.81,-31.79,-68.8657658.00,-1.40,9.82,-3.99,-6.72,-1.28,-1.46,-14.81,-31.79,-68.8657711.00,-2.37,12.33,-4.94,-3.30,-0.16,-0.80,-9.30,-34.21,-85.5057763.00,-2.11,9.48,-1.25,0.51,0.09,0.15,-9.30,-34.21,-85.5057814.00,-0.75,9.48,-4.76,0.06,-0.05,-0.52,-7.75,-34.73,-89.3257866.00,-3.25,11.43,-4.47,-0.03,0.63,-0.43,-7.75,-34.73,-89.3257918.00,-1.71,9.41,-4.39,0.91,0.45,0.06,-6.37,-33.69,-82.0057969.00,-2.48,9.25,-2.38,0.17,0.55,0.20,-6.37,-33.69,-82.0058022.00,-1.35,7.62,-4.19,1.31,0.42,0.09,-6.37,-33.69,-82.0058073.00,-2.08,10.36,-6.14,-0.56,0.25,-0.41,-6.37,-33.35,-78.0158125.00,-0.49,6.38,-1.41,0.33,0.41,-0.27,-6.37,-33.35,-78.0158178.00,0.80,7.58,-2.05,-8.89,-0.65,-2.80,-1.72,-34.21,-87.1658229.00,5.87,46.60,8.93,-23.17,1.46,-3.32,-1.72,-34.21,-87.1658280.00,-1.01,-2.70,9.86,-5.53,-1.71,5.28,-1.72,-34.21,-87.1658332.00,0.00,-0.54,9.92,-0.18,-0.07,0.74,11.71,36.63,-131.0758383.00,-0.09,-0.23,9.78,-0.14,-0.03,0.02,11.71,36.63,-131.0758436.00,0.02,-1.52,9.99,-0.04,-0.02,0.04,14.12,36.98,-130.7458487.00,-0.79,-0.45,9.70,-0.23,-0.09,2.02,14.12,36.98,-130.7458538.00,0.52,0.44,9.81,-0.15,-0.06,1.24,14.12,36.98,-130.7458591.00,-0.08,-0.24,9.75,-0.15,-0.03,0.05,16.36,35.42,-131.9158642.00,-0.08,-0.25,9.69,-0.14,-0.03,0.02,16.36,35.42,-131.9158694.00,-0.11,-0.26,9.74,-0.14,-0.03,0.02,18.60,34.90,-131.7458746.00,-0.09,-0.27,9.72,-0.14,-0.03,0.02,18.60,34.90,-131.7458798.00,-0.08,-0.23,9.73,-0.14,-0.03,0.02,15.84,33.87,-131.0758849.00,-0.09,-0.24,9.72,-0.14,-0.03,0.02,15.84,33.87,-131.0758902.00,-0.10,-0.25,9.74,-0.14,-0.03,0.02,15.84,33.87,-131.0758954.00,-0.08,-0.23,9.72,-0.14,-0.03,0.02,17.56,34.56,-132.7459005.00,-0.08,-0.27,9.74,-0.14,-0.03,0.02,17.56,34.56,-132.7459058.00,-0.08,-0.25,9.71,-0.14,-0.03,0.02,17.05,34.38,-131.2459110.00,-0.10,-0.25,9.74,-0.14,-0.03,0.02,17.05,34.38,-131.2459163.00,-0.07,-0.26,9.74,-0.14,-0.03,0.02,17.05,34.38,-131.2459216.00,-0.09,-0.27,9.74,-0.14,-0.03,0.02,16.01,34.04,-131.5759267.00,0.06,0.96,9.96,0.05,-0.02,0.07,16.01,34.04,-131.5759319.00,0.86,0.34,9.77,-0.07,-0.03,0.04,16.01,34.04,-132.2459372.00,1.93,-1.46,9.55,0.30,-0.05,0.14,16.01,34.04,-132.2459423.00,-1.60,0.27,10.14,1.57,-0.21,-0.64,16.01,34.04,-132.2459474.00,-0.86,2.83,9.12,5.11,-0.14,0.20,14.12,30.76,-133.4059527.00,-1.27,8.87,6.71,8.09,-0.77,-0.88,14.12,30.76,-133.4059579.00,0.88,6.23,7.76,7.65,-0.52,0.36,8.44,-10.89,-123.2659630.00,-0.73,10.40,1.29,3.46,1.59,0.62,8.44,-10.89,-123.2659683.00,-1.12,8.76,2.12,2.40,-3.93,0.07,5.34,-30.93,-100.6359734.00,-0.46,9.39,-2.56,-0.29,-0.93,-0.04,5.34,-30.93,-100.6359786.00,-0.15,9.38,1.13,1.89,-0.04,0.36,5.34,-30.93,-100.6359839.00,0.27,8.24,-3.82,2.21,1.51,-0.55,3.10,-32.48,-90.8259890.00,-8.75,17.98,-14.04,4.12,1.93,-2.12,3.10,-32.48,-90.8259942.00,-0.58,6.53,-4.67,1.29,0.71,-1.17,9.64,-23.15,-56.5659995.00,-0.83,4.93,-7.35,1.59,0.19,0.09,9.64,-23.15,-56.5660046.00,-1.13,5.02,-6.85,-1.39,-0.55,0.50,9.64,-23.15,-56.5660097.00,-0.50,6.58,-7.59,-0.18,-0.06,0.06,10.68,-23.50,-55.5660150.00,0.79,6.35,-7.89,-0.14,-0.07,0.07,10.68,-23.50,-55.5660202.00,0.70,6.21,-7.79,-0.13,-0.28,0.32,11.71,-23.50,-57.5560253.00,-0.80,6.83,-7.33,-0.16,-0.12,0.12,11.71,-23.50,-57.5560306.00,-3.40,7.25,-6.87,-0.09,-0.00,0.01,11.71,-23.50,-57.5560357.00,-0.57,5.52,-7.04,-0.19,-0.04,0.03,10.16,-25.05,-56.7260409.00,-0.96,6.89,-7.33,-0.21,0.05,-0.19,10.16,-25.05,-56.7260462.00,1.19,6.34,-7.85,-0.25,-0.31,0.42,9.13,-26.09,-57.3960513.00,-1.52,5.83,-7.35,0.50,0.56,-0.53,9.13,-26.09,-57.3960565.00,0.12,6.81,-7.60,-0.36,-0.13,0.30,8.95,-25.57,-56.5660617.00,-0.61,6.47,-7.43,-0.11,-0.07,0.18,8.95,-25.57,-56.5660668.00,-0.55,6.62,-7.45,-0.18,-0.22,0.45,8.95,-25.57,-56.5660720.00,-0.83,6.41,-7.70,-0.18,-0.23,0.25,8.61,-25.57,-57.5560771.00,-0.78,6.09,-8.08,-0.23,-0.35,0.43,8.61,-25.57,-57.5560822.00,-0.42,7.09,-7.04,0.18,-0.67,0.48,7.75,-26.78,-57.3960875.00,-0.01,6.59,-7.40,-0.23,-0.10,-0.02,7.75,-26.78,-57.3960927.00,-0.75,6.52,-7.64,-0.32,-0.00,0.39,7.75,-26.78,-57.39