time,ax,ay,az,gx,gy,gz,mx,my,mz211.00,-0.57,6.49,-7.65,-0.14,-0.03,0.02,2.58,-24.02,-56.06214.00,-0.57,6.49,-7.65,-0.14,-0.03,0.02,2.58,-24.02,-56.06217.00,-0.57,6.49,-7.65,-0.14,-0.03,0.02,2.58,-24.02,-56.06221.00,-0.57,6.49,-7.65,-0.14,-0.03,0.02,2.58,-24.02,-56.06225.00,-0.57,6.49,-7.65,-0.14,-0.03,0.02,2.58,-24.02,-56.06228.00,-0.57,6.49,-7.65,-0.14,-0.03,0.02,2.58,-24.02,-56.06231.00,-0.57,6.48,-7.62,-0.14,-0.03,0.02,2.58,-24.02,-56.06234.00,-0.57,6.48,-7.62,-0.14,-0.03,0.02,2.58,-24.02,-56.06238.00,-0.57,6.48,-7.62,-0.14,-0.03,0.02,2.58,-24.02,-56.06241.00,-0.57,6.48,-7.62,-0.14,-0.03,0.02,2.58,-24.02,-56.06244.00,-0.57,6.48,-7.62,-0.14,-0.03,0.02,2.58,-24.02,-56.06248.00,-0.57,6.48,-7.62,-0.14,-0.03,0.02,2.58,-24.02,-56.06251.00,-0.56,6.49,-7.65,-0.14,-0.03,0.02,2.58,-24.02,-56.06254.00,-0.56,6.49,-7.65,-0.14,-0.03,0.02,2.58,-24.02,-56.06258.00,-0.56,6.49,-7.65,-0.14,-0.03,0.02,2.58,-24.02,-56.06261.00,-0.56,6.49,-7.65,-0.14,-0.03,0.02,2.58,-24.02,-56.06265.00,-0.56,6.49,-7.65,-0.14,-0.03,0.02,2.58,-24.02,-56.06268.00,-0.56,6.49,-7.65,-0.14,-0.03,0.02,2.58,-24.02,-56.06271.00,-0.56,6.50,-7.62,-0.14,-0.03,0.02,2.58,-24.02,-56.06274.00,-0.56,6.50,-7.62,-0.14,-0.03,0.02,2.58,-24.02,-56.06278.00,-0.56,6.50,-7.62,-0.14,-0.03,0.02,2.58,-24.02,-56.06281.00,-0.56,6.50,-7.62,-0.14,-0.03,0.02,2.58,-24.02,-56.06286.00,-0.56,6.50,-7.62,-0.14,-0.03,0.02,2.58,-24.02,-56.06289.00,-0.56,6.50,-7.62,-0.14,-0.03,0.02,2.58,-24.02,-56.06292.00,-0.57,6.50,-7.62,-0.14,-0.03,0.02,2.58,-24.02,-56.06296.00,-0.57,6.50,-7.62,-0.14,-0.03,0.02,2.58,-24.02,-56.06299.00,-0.57,6.50,-7.62,-0.14,-0.03,0.02,2.58,-24.02,-56.06303.00,-0.57,6.50,-7.62,-0.14,-0.03,0.02,2.58,-24.02,-56.06306.00,-0.57,6.50,-7.62,-0.14,-0.03,0.02,2.58,-24.02,-56.06309.00,-0.57,6.50,-7.62,-0.14,-0.03,0.02,2.58,-24.02,-56.06313.00,-0.57,6.50,-7.64,-0.14,-0.03,0.02,2.58,-24.02,-56.06316.00,-0.57,6.50,-7.64,-0.14,-0.03,0.02,2.58,-24.02,-56.06319.00,-0.57,6.50,-7.64,-0.14,-0.03,0.02,2.58,-24.02,-56.06323.00,-0.57,6.50,-7.64,-0.14,-0.03,0.02,2.58,-24.02,-56.06326.00,-0.57,6.50,-7.64,-0.14,-0.03,0.02,2.58,-24.02,-56.06329.00,-0.57,6.50,-7.64,-0.14,-0.03,0.02,2.58,-24.02,-56.06333.00,-0.57,6.50,-7.62,-0.14,-0.03,0.02,2.58,-24.02,-56.06336.00,-0.57,6.50,-7.62,-0.14,-0.03,0.02,2.58,-24.02,-56.06339.00,-0.57,6.50,-7.62,-0.14,-0.03,0.02,2.58,-24.02,-56.06343.00,-0.57,6.50,-7.62,-0.14,-0.03,0.02,2.58,-24.02,-56.06346.00,-0.57,6.50,-7.62,-0.14,-0.03,0.02,2.58,-24.02,-56.06349.00,-0.57,6.50,-7.62,-0.14,-0.03,0.02,2.58,-24.02,-56.06353.00,-0.57,6.50,-7.62,-0.14,-0.03,0.02,2.58,-24.02,-56.06356.00,-0.57,6.50,-7.62,-0.14,-0.03,0.02,2.58,-24.02,-56.06359.00,-0.57,6.50,-7.62,-0.14,-0.03,0.02,2.58,-24.02,-56.06363.00,-0.57,6.50,-7.62,-0.14,-0.03,0.02,2.58,-24.02,-56.06366.00,-0.57,6.50,-7.62,-0.14,-0.03,0.02,2.58,-24.02,-56.06369.00,-0.57,6.50,-7.62,-0.14,-0.03,0.02,2.58,-24.02,-56.06373.00,-0.56,6.49,-7.61,-0.14,-0.03,0.02,2.58,-24.02,-56.06376.00,-0.56,6.49,-7.61,-0.14,-0.03,0.02,2.58,-24.02,-56.06380.00,-0.56,6.49,-7.61,-0.14,-0.03,0.02,2.58,-24.02,-56.06383.00,-0.56,6.49,-7.61,-0.14,-0.03,0.02,2.58,-24.02,-56.06386.00,-0.56,6.49,-7.61,-0.14,-0.03,0.02,2.58,-24.02,-56.06390.00,-0.56,6.49,-7.61,-0.14,-0.03,0.02,2.58,-24.02,-56.06393.00,-0.57,6.49,-7.63,-0.14,-0.03,0.02,2.58,-24.02,-56.06396.00,-0.57,6.49,-7.63,-0.14,-0.03,0.02,2.58,-24.02,-56.06400.00,-0.57,6.49,-7.63,-0.14,-0.03,0.02,2.58,-24.02,-56.06403.00,-0.57,6.49,-7.63,-0.14,-0.03,0.02,2.58,-24.02,-56.06406.00,-0.57,6.49,-7.63,-0.14,-0.03,0.02,2.58,-24.02,-56.06410.00,-0.57,6.49,-7.63,-0.14,-0.03,0.02,2.58,-24.02,-56.06413.00,-0.58,6.50,-7.65,-0.14,-0.03,0.02,2.58,-24.02,-56.06417.00,-0.58,6.50,-7.65,-0.14,-0.03,0.02,2.58,-24.02,-56.06420.00,-0.58,6.50,-7.65,-0.14,-0.03,0.02,2.58,-24.02,-56.06424.00,-0.58,6.50,-7.65,-0.14,-0.03,0.02,2.58,-24.02,-56.06427.00,-0.58,6.50,-7.65,-0.14,-0.03,0.02,2.58,-24.02,-56.06430.00,-0.58,6.50,-7.65,-0.14,-0.03,0.02,2.58,-24.02,-56.06434.00,-0.56,6.49,-7.68,-0.14,-0.03,0.02,4.30,-25.74,-56.39438.00,-0.56,6.49,-7.68,-0.14,-0.03,0.02,4.30,-25.74,-56.39441.00,-0.56,6.49,-7.68,-0.14,-0.03,0.02,4.30,-25.74,-56.39445.00,-0.56,6.49,-7.68,-0.14,-0.03,0.02,4.30,-25.74,-56.39448.00,-0.56,6.49,-7.68,-0.14,-0.03,0.02,4.30,-25.74,-56.39452.00,-0.57,6.49,-7.64,-0.14,-0.03,0.02,4.30,-25.74,-56.39455.00,-0.57,6.49,-7.64,-0.14,-0.03,0.02,4.30,-25.74,-56.39458.00,-0.57,6.49,-7.64,-0.14,-0.03,0.02,4.30,-25.74,-56.39462.00,-0.57,6.49,-7.64,-0.14,-0.03,0.02,4.30,-25.74,-56.39465.00,-0.57,6.49,-7.64,-0.14,-0.03,0.02,4.30,-25.74,-56.39468.00,-0.57,6.49,-7.64,-0.14,-0.03,0.02,4.30,-25.74,-56.39472.00,-0.57,6.50,-7.64,-0.14,-0.03,0.02,4.30,-25.74,-56.39475.00,-0.57,6.50,-7.64,-0.14,-0.03,0.02,4.30,-25.74,-56.39478.00,-0.57,6.50,-7.64,-0.14,-0.03,0.02,4.30,-25.74,-56.39482.00,-0.57,6.50,-7.64,-0.14,-0.03,0.02,4.30,-25.74,-56.39485.00,-0.57,6.50,-7.64,-0.14,-0.03,0.02,4.30,-25.74,-56.39489.00,-0.57,6.50,-7.64,-0.14,-0.03,0.02,4.30,-25.74,-56.39492.00,-0.57,6.49,-7.62,-0.14,-0.03,0.02,4.30,-25.74,-56.39495.00,-0.57,6.49,-7.62,-0.14,-0.03,0.02,4.30,-25.74,-56.39499.00,-0.57,6.49,-7.62,-0.14,-0.03,0.02,4.30,-25.74,-56.39502.00,-0.57,6.49,-7.62,-0.14,-0.03,0.02,4.30,-25.74,-56.39505.00,-0.57,6.49,-7.62,-0.14,-0.03,0.02,4.30,-25.74,-56.39509.00,-0.57,6.49,-7.62,-0.14,-0.03,0.02,4.30,-25.74,-56.39512.00,-0.57,6.52,-7.61,-0.14,-0.03,0.02,4.30,-25.74,-56.39516.00,-0.57,6.52,-7.61,-0.14,-0.03,0.02,4.30,-25.74,-56.39519.00,-0.57,6.52,-7.61,-0.14,-0.03,0.02,4.30,-25.74,-56.39522.00,-0.57,6.52,-7.61,-0.14,-0.03,0.02,4.30,-25.74,-56.39526.00,-0.57,6.52,-7.61,-0.14,-0.03,0.02,4.30,-25.74,-56.39529.00,-0.57,6.52,-7.61,-0.14,-0.03,0.02,4.30,-25.74,-56.39532.00,-0.57,6.50,-7.63,-0.14,-0.03,0.02,4.30,-25.74,-56.39536.00,-0.57,6.50,-7.63,-0.14,-0.03,0.02,4.30,-25.74,-56.39539.00,-0.57,6.50,-7.63,-0.14,-0.03,0.02,4.30,-25.74,-56.39542.00,-0.57,6.50,-7.63,-0.14,-0.03,0.02,4.30,-25.74,-56.39546.00,-0.57,6.50,-7.63,-0.14,-0.03,0.02,4.30,-25.74,-56.39549.00,-0.57,6.50,-7.63,-0.14,-0.03,0.02,4.30,-25.74,-56.39553.00,-0.57,6.50,-7.66,-0.14,-0.03,0.02,4.13,-23.84,-58.22556.00,-0.57,6.50,-7.66,-0.14,-0.03,0.02,4.13,-23.84,-58.22560.00,-0.57,6.50,-7.66,-0.14,-0.03,0.02,4.13,-23.84,-58.22564.00,-0.57,6.50,-7.66,-0.14,-0.03,0.02,4.13,-23.84,-58.22567.00,-0.57,6.50,-7.66,-0.14,-0.03,0.02,4.13,-23.84,-58.22570.00,-0.57,6.50,-7.66,-0.14,-0.03,0.02,4.13,-23.84,-58.22574.00,-0.57,6.49,-7.65,-0.14,-0.03,0.02,4.13,-23.84,-58.22577.00,-0.57,6.49,-7.65,-0.14,-0.03,0.02,4.13,-23.84,-58.22580.00,-0.57,6.49,-7.65,-0.14,-0.03,0.02,4.13,-23.84,-58.22584.00,-0.57,6.49,-7.65,-0.14,-0.03,0.02,4.13,-23.84,-58.22587.00,-0.57,6.49,-7.65,-0.14,-0.03,0.02,4.13,-23.84,-58.22591.00,-0.56,6.50,-7.65,-0.14,-0.03,0.02,4.13,-23.84,-58.22595.00,-0.56,6.50,-7.65,-0.14,-0.03,0.02,4.13,-23.84,-58.22598.00,-0.56,6.50,-7.65,-0.14,-0.03,0.02,4.13,-23.84,-58.22602.00,-0.56,6.50,-7.65,-0.14,-0.03,0.02,4.13,-23.84,-58.22605.00,-0.56,6.50,-7.65,-0.14,-0.03,0.02,4.13,-23.84,-58.22608.00,-0.56,6.50,-7.65,-0.14,-0.03,0.02,4.13,-23.84,-58.22612.00,-0.56,6.49,-7.64,-0.14,-0.03,0.02,4.13,-23.84,-58.22615.00,-0.56,6.49,-7.64,-0.14,-0.03,0.02,4.13,-23.84,-58.22618.00,-0.56,6.49,-7.64,-0.14,-0.03,0.02,4.13,-23.84,-58.22622.00,-0.56,6.49,-7.64,-0.14,-0.03,0.02,4.13,-23.84,-58.22625.00,-0.56,6.49,-7.64,-0.14,-0.03,0.02,4.13,-23.84,-58.22629.00,-0.56,6.49,-7.64,-0.14,-0.03,0.02,4.13,-23.84,-58.22632.00,-0.57,6.49,-7.64,-0.14,-0.03,0.02,4.13,-23.84,-58.22635.00,-0.57,6.49,-7.64,-0.14,-0.03,0.02,4.13,-23.84,-58.22639.00,-0.57,6.49,-7.64,-0.14,-0.03,0.02,4.13,-23.84,-58.22642.00,-0.57,6.49,-7.64,-0.14,-0.03,0.02,4.13,-23.84,-58.22646.00,-0.57,6.49,-7.64,-0.14,-0.03,0.02,4.13,-23.84,-58.22649.00,-0.57,6.49,-7.64,-0.14,-0.03,0.02,4.13,-23.84,-58.22652.00,-0.56,6.50,-7.64,-0.14,-0.03,0.02,4.13,-23.84,-58.22656.00,-0.56,6.50,-7.64,-0.14,-0.03,0.02,4.13,-23.84,-58.22659.00,-0.56,6.50,-7.64,-0.14,-0.03,0.02,4.13,-23.84,-58.22663.00,-0.56,6.50,-7.64,-0.14,-0.03,0.02,4.13,-23.84,-58.22666.00,-0.56,6.50,-7.64,-0.14,-0.03,0.02,4.13,-23.84,-58.22669.00,-0.56,6.50,-7.64,-0.14,-0.03,0.02,4.13,-23.84,-58.22673.00,-0.55,6.50,-7.64,-0.14,-0.03,0.02,3.96,-24.36,-57.05676.00,-0.55,6.50,-7.64,-0.14,-0.03,0.02,3.96,-24.36,-57.05680.00,-0.55,6.50,-7.64,-0.14,-0.03,0.02,3.96,-24.36,-57.05683.00,-0.55,6.50,-7.64,-0.14,-0.03,0.02,3.96,-24.36,-57.05686.00,-0.55,6.50,-7.64,-0.14,-0.03,0.02,3.96,-24.36,-57.05690.00,-0.55,6.50,-7.64,-0.14,-0.03,0.02,3.96,-24.36,-57.05693.00,-0.57,6.49,-7.63,-0.14,-0.03,0.02,3.96,-24.36,-57.05697.00,-0.57,6.49,-7.63,-0.14,-0.03,0.02,3.96,-24.36,-57.05700.00,-0.57,6.49,-7.63,-0.14,-0.03,0.02,3.96,-24.36,-57.05704.00,-0.57,6.49,-7.63,-0.14,-0.03,0.02,3.96,-24.36,-57.05707.00,-0.57,6.49,-7.63,-0.14,-0.03,0.02,3.96,-24.36,-57.05710.00,-0.57,6.49,-7.63,-0.14,-0.03,0.02,3.96,-24.36,-57.05714.00,-0.57,6.50,-7.67,-0.14,-0.03,0.02,3.96,-24.36,-57.05718.00,-0.57,6.50,-7.67,-0.14,-0.03,0.02,3.96,-24.36,-57.05721.00,-0.57,6.50,-7.67,-0.14,-0.03,0.02,3.96,-24.36,-57.05725.00,-0.57,6.50,-7.67,-0.14,-0.03,0.02,3.96,-24.36,-57.05728.00,-0.57,6.50,-7.67,-0.14,-0.03,0.02,3.96,-24.36,-57.05732.00,-0.57,6.50,-7.66,-0.14,-0.03,0.02,3.96,-24.36,-57.05735.00,-0.57,6.50,-7.66,-0.14,-0.03,0.02,3.96,-24.36,-57.05738.00,-0.57,6.50,-7.66,-0.14,-0.03,0.02,3.96,-24.36,-57.05742.00,-0.57,6.50,-7.66,-0.14,-0.03,0.02,3.96,-24.36,-57.05746.00,-0.57,6.50,-7.66,-0.14,-0.03,0.02,3.96,-24.36,-57.05750.00,-0.57,6.50,-7.66,-0.14,-0.03,0.02,3.96,-24.36,-57.05753.00,-0.57,6.50,-7.65,-0.14,-0.03,0.02,3.96,-24.36,-57.05757.00,-0.57,6.50,-7.65,-0.14,-0.03,0.02,3.96,-24.36,-57.05760.00,-0.57,6.50,-7.65,-0.14,-0.03,0.02,3.96,-24.36,-57.05763.00,-0.57,6.50,-7.65,-0.14,-0.03,0.02,3.96,-24.36,-57.05767.00,-0.57,6.50,-7.65,-0.14,-0.03,0.02,3.96,-24.36,-57.05770.00,-0.57,6.50,-7.65,-0.14,-0.03,0.02,3.96,-24.36,-57.05774.00,-0.56,6.49,-7.65,-0.14,-0.03,0.02,3.96,-24.36,-57.05777.00,-0.56,6.49,-7.65,-0.14,-0.03,0.02,3.96,-24.36,-57.05780.00,-0.56,6.49,-7.65,-0.14,-0.03,0.02,3.96,-24.36,-57.05784.00,-0.56,6.49,-7.65,-0.14,-0.03,0.02,3.96,-24.36,-57.05787.00,-0.56,6.49,-7.65,-0.14,-0.03,0.02,3.96,-24.36,-57.05791.00,-0.56,6.49,-7.65,-0.14,-0.03,0.02,3.96,-24.36,-57.05794.00,-0.57,6.50,-7.64,-0.14,-0.03,0.02,3.96,-24.36,-57.05797.00,-0.57,6.50,-7.64,-0.14,-0.03,0.02,3.96,-24.36,-57.05801.00,-0.57,6.50,-7.64,-0.14,-0.03,0.02,3.96,-24.36,-57.05804.00,-0.57,6.50,-7.64,-0.14,-0.03,0.02,3.96,-24.36,-57.05808.00,-0.57,6.50,-7.64,-0.14,-0.03,0.02,3.96,-24.36,-57.05811.00,-0.57,6.50,-7.66,-0.14,-0.03,0.02,3.44,-24.19,-56.89815.00,-0.57,6.50,-7.66,-0.14,-0.03,0.02,3.44,-24.19,-56.89818.00,-0.57,6.50,-7.66,-0.14,-0.03,0.02,3.44,-24.19,-56.89821.00,-0.57,6.50,-7.66,-0.14,-0.03,0.02,3.44,-24.19,-56.89825.00,-0.57,6.50,-7.66,-0.14,-0.03,0.02,3.44,-24.19,-56.89828.00,-0.57,6.50,-7.66,-0.14,-0.03,0.02,3.44,-24.19,-56.89832.00,-0.57,6.50,-7.63,-0.14,-0.03,0.02,3.44,-24.19,-56.89835.00,-0.57,6.50,-7.63,-0.14,-0.03,0.02,3.44,-24.19,-56.89838.00,-0.57,6.50,-7.63,-0.14,-0.03,0.02,3.44,-24.19,-56.89842.00,-0.57,6.50,-7.63,-0.14,-0.03,0.02,3.44,-24.19,-56.89845.00,-0.57,6.50,-7.63,-0.14,-0.03,0.02,3.44,-24.19,-56.89849.00,-0.57,6.50,-7.63,-0.14,-0.03,0.02,3.44,-24.19,-56.89852.00,-0.56,6.49,-7.65,-0.14,-0.03,0.02,3.44,-24.19,-56.89856.00,-0.56,6.49,-7.65,-0.14,-0.03,0.02,3.44,-24.19,-56.89859.00,-0.56,6.49,-7.65,-0.14,-0.03,0.02,3.44,-24.19,-56.89862.00,-0.56,6.49,-7.65,-0.14,-0.03,0.02,3.44,-24.19,-56.89866.00,-0.56,6.49,-7.65,-0.14,-0.03,0.02,3.44,-24.19,-56.89870.00,-0.56,6.49,-7.65,-0.14,-0.03,0.02,3.44,-24.19,-56.89874.00,-0.57,6.51,-7.65,-0.14,-0.03,0.02,3.44,-24.19,-56.89877.00,-0.57,6.51,-7.65,-0.14,-0.03,0.02,3.44,-24.19,-56.89880.00,-0.57,6.51,-7.65,-0.14,-0.03,0.02,3.44,-24.19,-56.89884.00,-0.57,6.51,-7.65,-0.14,-0.03,0.02,3.44,-24.19,-56.89887.00,-0.57,6.51,-7.65,-0.14,-0.03,0.02,3.44,-24.19,-56.89891.00,-0.57,6.51,-7.65,-0.14,-0.03,0.02,3.44,-24.19,-56.89894.00,-0.57,6.52,-7.61,-0.14,-0.03,0.02,3.44,-24.19,-56.89898.00,-0.57,6.52,-7.61,-0.14,-0.03,0.02,3.44,-24.19,-56.89902.00,-0.57,6.52,-7.61,-0.14,-0.03,0.02,3.44,-24.19,-56.89905.00,-0.57,6.52,-7.61,-0.14,-0.03,0.02,3.44,-24.19,-56.89909.00,-0.57,6.52,-7.61,-0.14,-0.03,0.02,3.44,-24.19,-56.89912.00,-0.57,6.50,-7.61,-0.14,-0.03,0.02,3.44,-24.19,-56.89916.00,-0.57,6.50,-7.61,-0.14,-0.03,0.02,3.44,-24.19,-56.89919.00,-0.57,6.50,-7.61,-0.14,-0.03,0.02,3.44,-24.19,-56.89922.00,-0.57,6.50,-7.61,-0.14,-0.03,0.02,3.44,-24.19,-56.89926.00,-0.57,6.50,-7.61,-0.14,-0.03,0.02,3.44,-24.19,-56.89929.00,-0.57,6.50,-7.61,-0.14,-0.03,0.02,3.44,-24.19,-56.89933.00,-0.57,6.50,-7.66,-0.14,-0.03,0.02,3.44,-24.88,-56.56936.00,-0.57,6.50,-7.66,-0.14,-0.03,0.02,3.44,-24.88,-56.56939.00,-0.57,6.50,-7.66,-0.14,-0.03,0.02,3.44,-24.88,-56.56943.00,-0.57,6.50,-7.66,-0.14,-0.03,0.02,3.44,-24.88,-56.56946.00,-0.57,6.50,-7.66,-0.14,-0.03,0.02,3.44,-24.88,-56.56950.00,-0.57,6.50,-7.66,-0.14,-0.03,0.02,3.44,-24.88,-56.56953.00,-0.59,6.50,-7.65,-0.14,-0.03,0.02,3.44,-24.88,-56.56957.00,-0.59,6.50,-7.65,-0.14,-0.03,0.02,3.44,-24.88,-56.56960.00,-0.59,6.50,-7.65,-0.14,-0.03,0.02,3.44,-24.88,-56.56964.00,-0.59,6.50,-7.65,-0.14,-0.03,0.02,3.44,-24.88,-56.56967.00,-0.59,6.50,-7.65,-0.14,-0.03,0.02,3.44,-24.88,-56.56970.00,-0.59,6.50,-7.65,-0.14,-0.03,0.02,3.44,-24.88,-56.56974.00,-0.57,6.49,-7.62,-0.14,-0.03,0.02,3.44,-24.88,-56.56977.00,-0.57,6.49,-7.62,-0.14,-0.03,0.02,3.44,-24.88,-56.56981.00,-0.57,6.49,-7.62,-0.14,-0.03,0.02,3.44,-24.88,-56.56984.00,-0.57,6.49,-7.62,-0.14,-0.03,0.02,3.44,-24.88,-56.56988.00,-0.57,6.49,-7.62,-0.14,-0.03,0.02,3.44,-24.88,-56.56991.00,-2.61,5.40,-8.79,-0.17,-0.46,0.53,3.44,-24.88,-56.56994.00,-2.61,5.40,-8.79,-0.17,-0.46,0.53,3.44,-24.88,-56.56998.00,-2.61,5.40,-8.79,-0.17,-0.46,0.53,3.44,-24.88,-56.561001.00,-2.61,5.40,-8.79,-0.17,-0.46,0.53,3.44,-24.88,-56.561005.00,-2.61,5.40,-8.79,-0.17,-0.46,0.53,3.44,-24.88,-56.561008.00,-2.61,5.40,-8.79,-0.17,-0.46,0.53,3.44,-24.88,-56.561012.00,-1.44,7.98,-11.17,0.95,-1.26,1.33,3.44,-24.88,-56.561015.00,-1.44,7.98,-11.17,0.95,-1.26,1.33,3.44,-24.88,-56.561019.00,-1.44,7.98,-11.17,0.95,-1.26,1.33,3.44,-24.88,-56.561022.00,-1.44,7.98,-11.17,0.95,-1.26,1.33,3.44,-24.88,-56.561026.00,-1.44,7.98,-11.17,0.95,-1.26,1.33,3.44,-24.88,-56.561029.00,-1.44,7.98,-11.17,0.95,-1.26,1.33,3.44,-24.88,-56.561033.00,0.07,2.71,-6.50,3.98,-0.05,0.31,3.44,-24.88,-56.561036.00,0.07,2.71,-6.50,3.98,-0.05,0.31,3.44,-24.88,-56.561040.00,0.07,2.71,-6.50,3.98,-0.05,0.31,3.44,-24.88,-56.561043.00,0.07,2.71,-6.50,3.98,-0.05,0.31,3.44,-24.88,-56.561047.00,0.07,2.71,-6.50,3.98,-0.05,0.31,3.44,-24.88,-56.561050.00,0.07,2.71,-6.50,3.98,-0.05,0.31,3.44,-24.88,-56.561054.00,0.09,3.25,-9.90,1.90,0.48,-0.85,2.76,-19.70,-51.231058.00,0.09,3.25,-9.90,1.90,0.48,-0.85,2.76,-19.70,-51.231061.00,0.09,3.25,-9.90,1.90,0.48,-0.85,2.76,-19.70,-51.231065.00,0.09,3.25,-9.90,1.90,0.48,-0.85,2.76,-19.70,-51.231068.00,0.09,3.25,-9.90,1.90,0.48,-0.85,2.76,-19.70,-51.231072.00,-0.39,3.71,-10.29,1.56,0.94,-1.87,2.76,-19.70,-51.231075.00,-0.39,3.71,-10.29,1.56,0.94,-1.87,2.76,-19.70,-51.231078.00,-0.39,3.71,-10.29,1.56,0.94,-1.87,2.76,-19.70,-51.231082.00,-0.39,3.71,-10.29,1.56,0.94,-1.87,2.76,-19.70,-51.231085.00,-0.39,3.71,-10.29,1.56,0.94,-1.87,2.76,-19.70,-51.231089.00,-0.39,3.71,-10.29,1.56,0.94,-1.87,2.76,-19.70,-51.231092.00,-0.56,5.95,-4.66,1.55,1.12,-2.46,2.76,-19.70,-51.231096.00,-0.56,5.95,-4.66,1.55,1.12,-2.46,2.76,-19.70,-51.231100.00,-0.56,5.95,-4.66,1.55,1.12,-2.46,2.76,-19.70,-51.231103.00,-0.56,5.95,-4.66,1.55,1.12,-2.46,2.76,-19.70,-51.231106.00,-0.56,5.95,-4.66,1.55,1.12,-2.46,2.76,-19.70,-51.231110.00,-0.56,5.95,-4.66,1.55,1.12,-2.46,2.76,-19.70,-51.231113.00,-1.31,13.00,-5.03,-2.98,0.53,-1.22,2.76,-19.70,-51.231117.00,-1.31,13.00,-5.03,-2.98,0.53,-1.22,2.76,-19.70,-51.231120.00,-1.31,13.00,-5.03,-2.98,0.53,-1.22,2.76,-19.70,-51.231124.00,-1.31,13.00,-5.03,-2.98,0.53,-1.22,2.76,-19.70,-51.231127.00,-1.31,13.00,-5.03,-2.98,0.53,-1.22,2.76,-19.70,-51.231131.00,-1.31,13.00,-5.03,-2.98,0.53,-1.22,2.76,-19.70,-51.231134.00,-2.41,12.52,-8.88,-3.34,-0.49,1.27,2.76,-19.70,-51.231138.00,-2.41,12.52,-8.88,-3.34,-0.49,1.27,2.76,-19.70,-51.231141.00,-2.41,12.52,-8.88,-3.34,-0.49,1.27,2.76,-19.70,-51.231145.00,-2.41,12.52,-8.88,-3.34,-0.49,1.27,2.76,-19.70,-51.231148.00,-2.41,12.52,-8.88,-3.34,-0.49,1.27,2.76,-19.70,-51.231152.00,-2.80,10.45,-10.58,0.59,-0.80,2.72,2.76,-19.70,-51.231155.00,-2.80,10.45,-10.58,0.59,-0.80,2.72,2.76,-19.70,-51.231159.00,-2.80,10.45,-10.58,0.59,-0.80,2.72,2.76,-19.70,-51.231162.00,-2.80,10.45,-10.58,0.59,-0.80,2.72,2.76,-19.70,-51.231165.00,-2.80,10.45,-10.58,0.59,-0.80,2.72,2.76,-19.70,-51.231169.00,-2.80,10.45,-10.58,0.59,-0.80,2.72,2.76,-19.70,-51.231173.00,-0.95,6.74,-14.32,1.23,-0.08,3.30,2.93,-20.91,-53.391177.00,-0.95,6.74,-14.32,1.23,-0.08,3.30,2.93,-20.91,-53.391180.00,-0.95,6.74,-14.32,1.23,-0.08,3.30,2.93,-20.91,-53.391184.00,-0.95,6.74,-14.32,1.23,-0.08,3.30,2.93,-20.91,-53.391187.00,-0.95,6.74,-14.32,1.23,-0.08,3.30,2.93,-20.91,-53.391190.00,-0.95,6.74,-14.32,1.23,-0.08,3.30,2.93,-20.91,-53.391194.00,-0.96,5.06,-15.02,2.45,1.08,3.27,2.93,-20.91,-53.391197.00,-0.96,5.06,-15.02,2.45,1.08,3.27,2.93,-20.91,-53.391201.00,-0.96,5.06,-15.02,2.45,1.08,3.27,2.93,-20.91,-53.391205.00,-0.96,5.06,-15.02,2.45,1.08,3.27,2.93,-20.91,-53.391208.00,-0.96,5.06,-15.02,2.45,1.08,3.27,2.93,-20.91,-53.391212.00,-2.26,3.12,-11.56,5.35,2.02,3.06,2.93,-20.91,-53.391216.00,-2.26,3.12,-11.56,5.35,2.02,3.06,2.93,-20.91,-53.391219.00,-2.26,3.12,-11.56,5.35,2.02,3.06,2.93,-20.91,-53.391222.00,-2.26,3.12,-11.56,5.35,2.02,3.06,2.93,-20.91,-53.391226.00,-2.26,3.12,-11.56,5.35,2.02,3.06,2.93,-20.91,-53.391229.00,-2.26,3.12,-11.56,5.35,2.02,3.06,2.93,-20.91,-53.391233.00,-3.23,2.73,-12.57,5.87,2.33,2.67,2.93,-20.91,-53.391236.00,-3.23,2.73,-12.57,5.87,2.33,2.67,2.93,-20.91,-53.391240.00,-3.23,2.73,-12.57,5.87,2.33,2.67,2.93,-20.91,-53.391243.00,-3.23,2.73,-12.57,5.87,2.33,2.67,2.93,-20.91,-53.391247.00,-3.23,2.73,-12.57,5.87,2.33,2.67,2.93,-20.91,-53.391250.00,-3.23,2.73,-12.57,5.87,2.33,2.67,2.93,-20.91,-53.391254.00,-2.76,5.32,-16.77,3.73,2.82,2.73,2.93,-20.91,-53.391257.00,-2.76,5.32,-16.77,3.73,2.82,2.73,2.93,-20.91,-53.391261.00,-2.76,5.32,-16.77,3.73,2.82,2.73,2.93,-20.91,-53.391264.00,-2.76,5.32,-16.77,3.73,2.82,2.73,2.93,-20.91,-53.391267.00,-2.76,5.32,-16.77,3.73,2.82,2.73,2.93,-20.91,-53.391271.00,-2.76,5.32,-16.77,3.73,2.82,2.73,2.93,-20.91,-53.391274.00,-2.03,3.37,-15.26,3.56,4.13,3.46,2.93,-20.91,-53.391278.00,-2.03,3.37,-15.26,3.56,4.13,3.46,2.93,-20.91,-53.391281.00,-2.03,3.37,-15.26,3.56,4.13,3.46,2.93,-20.91,-53.391285.00,-2.03,3.37,-15.26,3.56,4.13,3.46,2.93,-20.91,-53.391288.00,-2.03,3.37,-15.26,3.56,4.13,3.46,2.93,-20.91,-53.391292.00,-3.54,1.21,-10.42,3.05,5.65,4.12,2.93,-20.91,-53.391295.00,-3.54,1.21,-10.42,3.05,5.65,4.12,2.93,-20.91,-53.391299.00,-3.54,1.21,-10.42,3.05,5.65,4.12,2.93,-20.91,-53.391302.00,-3.54,1.21,-10.42,3.05,5.65,4.12,2.93,-20.91,-53.391306.00,-3.54,1.21,-10.42,3.05,5.65,4.12,2.93,-20.91,-53.391309.00,-3.54,1.21,-10.42,3.05,5.65,4.12,2.93,-20.91,-53.391313.00,-1.96,-0.84,-8.27,0.87,6.36,4.56,-20.15,0.86,-46.081316.00,-1.96,-0.84,-8.27,0.87,6.36,4.56,-20.15,0.86,-46.081320.00,-1.96,-0.84,-8.27,0.87,6.36,4.56,-20.15,0.86,-46.081323.00,-1.96,-0.84,-8.27,0.87,6.36,4.56,-20.15,0.86,-46.081327.00,-1.96,-0.84,-8.27,0.87,6.36,4.56,-20.15,0.86,-46.081330.00,-1.96,-0.84,-8.27,0.87,6.36,4.56,-20.15,0.86,-46.081334.00,-1.04,-4.63,-10.13,1.05,6.75,4.45,-20.15,0.86,-46.081337.00,-1.04,-4.63,-10.13,1.05,6.75,4.45,-20.15,0.86,-46.081341.00,-1.04,-4.63,-10.13,1.05,6.75,4.45,-20.15,0.86,-46.081344.00,-1.04,-4.63,-10.13,1.05,6.75,4.45,-20.15,0.86,-46.081348.00,-1.04,-4.63,-10.13,1.05,6.75,4.45,-20.15,0.86,-46.081351.00,-1.04,-4.63,-10.13,1.05,6.75,4.45,-20.15,0.86,-46.081355.00,-4.95,-8.06,9.35,7.52,6.30,1.79,-20.15,0.86,-46.081359.00,-4.95,-8.06,9.35,7.52,6.30,1.79,-20.15,0.86,-46.081363.00,-4.95,-8.06,9.35,7.52,6.30,1.79,-20.15,0.86,-46.081366.00,-4.95,-8.06,9.35,7.52,6.30,1.79,-20.15,0.86,-46.081369.00,-4.95,-8.06,9.35,7.52,6.30,1.79,-20.15,0.86,-46.081373.00,-9.21,-0.27,0.14,2.58,2.93,0.65,-20.15,0.86,-46.081377.00,-9.21,-0.27,0.14,2.58,2.93,0.65,-20.15,0.86,-46.081380.00,-9.21,-0.27,0.14,2.58,2.93,0.65,-20.15,0.86,-46.081383.00,-9.21,-0.27,0.14,2.58,2.93,0.65,-20.15,0.86,-46.081387.00,-9.21,-0.27,0.14,2.58,2.93,0.65,-20.15,0.86,-46.081391.00,-9.21,-0.27,0.14,2.58,2.93,0.65,-20.15,0.86,-46.081394.00,-5.34,-4.04,-5.41,0.15,1.38,1.40,-20.15,0.86,-46.081397.00,-5.34,-4.04,-5.41,0.15,1.38,1.40,-20.15,0.86,-46.081401.00,-5.34,-4.04,-5.41,0.15,1.38,1.40,-20.15,0.86,-46.081404.00,-5.34,-4.04,-5.41,0.15,1.38,1.40,-20.15,0.86,-46.081408.00,-5.34,-4.04,-5.41,0.15,1.38,1.40,-20.15,0.86,-46.081411.00,-5.34,-4.04,-5.41,0.15,1.38,1.40,-20.15,0.86,-46.081415.00,-5.95,-4.19,-2.55,0.93,1.68,1.22,-20.15,0.86,-46.081418.00,-5.95,-4.19,-2.55,0.93,1.68,1.22,-20.15,0.86,-46.081422.00,-5.95,-4.19,-2.55,0.93,1.68,1.22,-20.15,0.86,-46.081425.00,-5.95,-4.19,-2.55,0.93,1.68,1.22,-20.15,0.86,-46.081429.00,-5.95,-4.19,-2.55,0.93,1.68,1.22,-20.15,0.86,-46.081432.00,-10.20,-2.17,-1.14,0.49,1.62,1.39,-35.99,15.38,-61.381436.00,-10.20,-2.17,-1.14,0.49,1.62,1.39,-35.99,15.38,-61.381439.00,-10.20,-2.17,-1.14,0.49,1.62,1.39,-35.99,15.38,-61.381443.00,-10.20,-2.17,-1.14,0.49,1.62,1.39,-35.99,15.38,-61.381446.00,-10.20,-2.17,-1.14,0.49,1.62,1.39,-35.99,15.38,-61.381450.00,-10.20,-2.17,-1.14,0.49,1.62,1.39,-35.99,15.38,-61.381453.00,-7.61,-0.53,-4.26,-1.12,1.16,2.10,-35.99,15.38,-61.381457.00,-7.61,-0.53,-4.26,-1.12,1.16,2.10,-35.99,15.38,-61.381460.00,-7.61,-0.53,-4.26,-1.12,1.16,2.10,-35.99,15.38,-61.381464.00,-7.61,-0.53,-4.26,-1.12,1.16,2.10,-35.99,15.38,-61.381467.00,-7.61,-0.53,-4.26,-1.12,1.16,2.10,-35.99,15.38,-61.381471.00,-7.61,-0.53,-4.26,-1.12,1.16,2.10,-35.99,15.38,-61.381474.00,-2.99,-5.88,-2.10,-0.13,1.10,2.56,-35.99,15.38,-61.381478.00,-2.99,-5.88,-2.10,-0.13,1.10,2.56,-35.99,15.38,-61.381482.00,-2.99,-5.88,-2.10,-0.13,1.10,2.56,-35.99,15.38,-61.381486.00,-2.99,-5.88,-2.10,-0.13,1.10,2.56,-35.99,15.38,-61.381489.00,-2.99,-5.88,-2.10,-0.13,1.10,2.56,-35.99,15.38,-61.381493.00,-4.59,-6.27,-2.84,1.05,0.96,2.05,-35.99,15.38,-61.381496.00,-4.59,-6.27,-2.84,1.05,0.96,2.05,-35.99,15.38,-61.381500.00,-4.59,-6.27,-2.84,1.05,0.96,2.05,-35.99,15.38,-61.381503.00,-4.59,-6.27,-2.84,1.05,0.96,2.05,-35.99,15.38,-61.381507.00,-4.59,-6.27,-2.84,1.05,0.96,2.05,-35.99,15.38,-61.381510.00,-4.59,-6.27,-2.84,1.05,0.96,2.05,-35.99,15.38,-61.381514.00,-4.93,-5.31,-4.26,2.30,1.39,1.33,-35.99,15.38,-61.381518.00,-4.93,-5.31,-4.26,2.30,1.39,1.33,-35.99,15.38,-61.381522.00,-4.93,-5.31,-4.26,2.30,1.39,1.33,-35.99,15.38,-61.381525.00,-4.93,-5.31,-4.26,2.30,1.39,1.33,-35.99,15.38,-61.381529.00,-4.93,-5.31,-4.26,2.30,1.39,1.33,-35.99,15.38,-61.381532.00,-5.69,-5.21,0.31,3.13,1.59,0.56,-35.99,15.38,-61.381536.00,-5.69,-5.21,0.31,3.13,1.59,0.56,-35.99,15.38,-61.381539.00,-5.69,-5.21,0.31,3.13,1.59,0.56,-35.99,15.38,-61.381543.00,-5.69,-5.21,0.31,3.13,1.59,0.56,-35.99,15.38,-61.381546.00,-5.69,-5.21,0.31,3.13,1.59,0.56,-35.99,15.38,-61.381550.00,-5.69,-5.21,0.31,3.13,1.59,0.56,-35.99,15.38,-61.381553.00,-7.86,-10.39,0.45,2.22,0.93,0.36,-36.33,26.78,-68.031557.00,-7.86,-10.39,0.45,2.22,0.93,0.36,-36.33,26.78,-68.031560.00,-7.86,-10.39,0.45,2.22,0.93,0.36,-36.33,26.78,-68.031564.00,-7.86,-10.39,0.45,2.22,0.93,0.36,-36.33,26.78,-68.031567.00,-7.86,-10.39,0.45,2.22,0.93,0.36,-36.33,26.78,-68.031571.00,-7.86,-10.39,0.45,2.22,0.93,0.36,-36.33,26.78,-68.031574.00,-8.49,-5.86,-2.35,-3.22,1.11,-0.28,-36.33,26.78,-68.031578.00,-8.49,-5.86,-2.35,-3.22,1.11,-0.28,-36.33,26.78,-68.031581.00,-8.49,-5.86,-2.35,-3.22,1.11,-0.28,-36.33,26.78,-68.031585.00,-8.49,-5.86,-2.35,-3.22,1.11,-0.28,-36.33,26.78,-68.031589.00,-8.49,-5.86,-2.35,-3.22,1.11,-0.28,-36.33,26.78,-68.031592.00,-8.13,-4.89,1.37,-6.51,1.40,0.02,-36.33,26.78,-68.031596.00,-8.13,-4.89,1.37,-6.51,1.40,0.02,-36.33,26.78,-68.031600.00,-8.13,-4.89,1.37,-6.51,1.40,0.02,-36.33,26.78,-68.031603.00,-8.13,-4.89,1.37,-6.51,1.40,0.02,-36.33,26.78,-68.031607.00,-8.13,-4.89,1.37,-6.51,1.40,0.02,-36.33,26.78,-68.031610.00,-8.13,-4.89,1.37,-6.51,1.40,0.02,-36.33,26.78,-68.031613.00,-7.80,-3.98,-1.82,-8.56,0.57,0.38,-36.33,26.78,-68.031617.00,-7.80,-3.98,-1.82,-8.56,0.57,0.38,-36.33,26.78,-68.031621.00,-7.80,-3.98,-1.82,-8.56,0.57,0.38,-36.33,26.78,-68.031625.00,-7.80,-3.98,-1.82,-8.56,0.57,0.38,-36.33,26.78,-68.031628.00,-7.80,-3.98,-1.82,-8.56,0.57,0.38,-36.33,26.78,-68.031632.00,-7.80,-3.98,-1.82,-8.56,0.57,0.38,-36.33,26.78,-68.031635.00,-5.49,-3.15,-4.47,-8.08,0.46,0.43,-36.33,26.78,-68.031639.00,-5.49,-3.15,-4.47,-8.08,0.46,0.43,-36.33,26.78,-68.031643.00,-5.49,-3.15,-4.47,-8.08,0.46,0.43,-36.33,26.78,-68.031646.00,-5.49,-3.15,-4.47,-8.08,0.46,0.43,-36.33,26.78,-68.031650.00,-5.49,-3.15,-4.47,-8.08,0.46,0.43,-36.33,26.78,-68.031653.00,-7.93,-1.87,-4.13,-6.46,0.83,0.66,-36.33,26.78,-68.031657.00,-7.93,-1.87,-4.13,-6.46,0.83,0.66,-36.33,26.78,-68.031660.00,-7.93,-1.87,-4.13,-6.46,0.83,0.66,-36.33,26.78,-68.031664.00,-7.93,-1.87,-4.13,-6.46,0.83,0.66,-36.33,26.78,-68.031668.00,-7.93,-1.87,-4.13,-6.46,0.83,0.66,-36.33,26.78,-68.031672.00,-7.93,-1.87,-4.13,-6.46,0.83,0.66,-36.33,26.78,-68.031675.00,-8.16,-0.07,-4.70,-4.42,0.71,1.02,-38.92,14.51,-70.531679.00,-8.16,-0.07,-4.70,-4.42,0.71,1.02,-38.92,14.51,-70.531682.00,-8.16,-0.07,-4.70,-4.42,0.71,1.02,-38.92,14.51,-70.531686.00,-8.16,-0.07,-4.70,-4.42,0.71,1.02,-38.92,14.51,-70.531690.00,-8.16,-0.07,-4.70,-4.42,0.71,1.02,-38.92,14.51,-70.531693.00,-6.75,-1.13,-6.03,-0.29,0.29,1.72,-38.92,14.51,-70.531696.00,-6.75,-1.13,-6.03,-0.29,0.29,1.72,-38.92,14.51,-70.531701.00,-6.75,-1.13,-6.03,-0.29,0.29,1.72,-38.92,14.51,-70.531751.00,-3.55,-10.28,-0.93,2.43,1.18,2.07,-38.92,14.51,-70.531802.00,-7.19,-2.79,-3.43,-6.90,-0.50,-1.58,-38.92,14.51,-70.531853.00,-10.36,6.08,-8.59,-5.11,-1.39,-1.29,-39.95,15.20,-72.191904.00,-10.12,3.11,-5.19,5.96,-0.06,0.75,-39.95,15.20,-72.191953.00,-7.82,-0.49,-4.22,2.05,1.10,1.38,-36.33,13.65,-69.032005.00,-7.67,-6.50,-5.28,0.27,1.48,2.24,-36.33,13.65,-69.032055.00,-10.78,-8.85,-4.08,-1.05,-0.23,-1.02,-37.54,21.77,-74.192105.00,-9.18,-1.62,-5.81,-0.97,-0.38,-1.17,-37.54,21.77,-74.192156.00,-3.97,-3.46,-5.10,4.31,1.03,0.70,-37.54,21.77,-74.192207.00,-8.52,-7.35,-0.19,2.57,1.40,0.66,-39.26,23.50,-77.852256.00,-8.33,-3.33,-3.94,-2.68,-0.42,-0.60,-39.26,23.50,-77.852308.00,-8.11,-4.99,-3.28,-0.20,-0.12,-0.20,-39.26,23.50,-77.852358.00,-7.32,-5.99,-3.17,0.15,-0.17,-0.11,-38.92,21.08,-76.852408.00,-8.63,-6.22,-1.50,-1.51,-0.11,-0.75,-38.92,21.08,-76.852459.00,-8.09,-1.64,-5.75,-1.16,-0.54,-0.93,-37.71,16.41,-75.022509.00,-8.41,-3.81,-3.73,-0.13,0.11,-0.09,-37.71,16.41,-75.022559.00,-8.46,-3.60,-3.85,0.02,0.09,-0.00,-39.43,13.65,-75.352611.00,-8.96,-3.04,-4.21,-0.27,-0.02,-0.04,-39.43,13.65,-75.352661.00,-8.42,-3.23,-4.53,-0.33,-0.03,0.05,-39.43,13.65,-75.352711.00,-8.44,-3.33,-4.07,-0.38,0.16,0.16,-39.95,14.51,-76.182764.00,-8.39,-3.06,-4.38,-0.70,0.12,0.16,-39.95,14.51,-76.182814.00,-8.57,-2.96,-4.66,-0.03,-0.02,0.14,-39.26,13.13,-76.182864.00,-8.55,-3.49,-4.10,0.05,0.03,0.15,-39.26,13.13,-76.182917.00,-8.51,-3.40,-4.01,-0.29,0.12,0.24,-39.26,13.13,-76.182967.00,-8.52,-3.83,-3.88,-0.40,0.04,0.15,-38.92,16.59,-75.523017.00,-8.43,-2.98,-4.47,-0.41,0.11,0.23,-38.92,16.59,-75.523070.00,-8.40,-4.17,-3.83,-0.25,0.13,0.25,-39.78,15.38,-77.013121.00,-8.51,-4.10,-3.71,-0.09,-0.04,0.06,-39.78,15.38,-77.013171.00,-8.53,-3.72,-3.96,-0.00,-0.14,-0.04,-39.78,15.38,-77.013223.00,-8.35,-3.71,-4.23,0.00,-0.14,-0.08,-39.26,16.24,-76.183273.00,-8.43,-3.37,-4.32,-0.11,-0.09,-0.14,-39.26,16.24,-76.183324.00,-8.38,-3.49,-4.15,-0.10,-0.06,-0.15,-39.95,14.86,-76.853376.00,-8.54,-3.04,-4.42,-0.12,-0.04,-0.13,-39.95,14.86,-76.853426.00,-8.68,-3.17,-4.24,-0.10,-0.04,-0.08,-39.95,14.86,-76.853476.00,-8.49,-3.14,-4.34,-0.19,-0.08,-0.08,-38.74,16.07,-76.023529.00,-8.58,-3.23,-4.14,-0.12,-0.02,-0.03,-38.74,16.07,-76.023579.00,-8.53,-3.14,-4.31,-0.12,-0.05,0.01,-39.60,14.17,-76.523629.00,-8.53,-3.18,-4.25,-0.13,-0.05,0.00,-39.60,14.17,-76.523681.00,-8.51,-3.12,-4.30,-0.14,-0.04,0.00,-39.60,14.17,-76.523731.00,-8.60,-3.17,-4.23,-0.09,-0.01,0.03,-39.26,13.48,-76.523781.00,-8.52,-3.24,-4.23,-0.12,-0.04,0.03,-39.26,13.48,-76.523834.00,-8.54,-3.20,-4.24,-0.14,-0.03,0.04,-39.43,14.00,-77.013884.00,-8.59,-3.21,-4.22,-0.11,-0.02,0.04,-39.43,14.00,-77.013935.00,-8.52,-3.19,-4.24,-0.14,-0.04,0.03,-39.43,14.00,-77.013987.00,-8.46,-3.27,-4.30,-0.13,-0.03,0.06,-40.47,14.69,-77.014038.00,-8.58,-3.25,-4.16,-0.13,-0.03,0.04,-40.47,14.69,-77.014088.00,-8.52,-3.28,-4.24,-0.14,-0.02,0.06,-38.92,15.20,-76.524140.00,-8.50,-3.29,-4.25,-0.19,-0.04,0.05,-38.92,15.20,-76.524190.00,-8.47,-3.26,-4.33,-0.16,-0.04,0.04,-38.92,15.20,-76.524240.00,-8.52,-3.28,-4.23,-0.13,-0.02,0.05,-38.74,15.03,-77.014293.00,-8.45,-3.31,-4.21,-0.13,-0.03,0.03,-38.74,15.03,-77.014343.00,-8.49,-3.29,-4.24,-0.15,-0.03,0.02,-39.43,15.03,-76.024393.00,-8.53,-3.29,-4.23,-0.14,-0.02,0.01,-39.43,15.03,-76.024444.00,-8.49,-3.29,-4.24,-0.15,-0.04,0.01,-39.43,14.00,-76.684495.00,-8.50,-3.21,-4.33,-0.13,-0.02,0.02,-39.43,14.00,-76.684545.00,-8.52,-3.33,-4.20,-0.12,-0.04,0.04,-39.43,14.00,-76.684595.00,-8.53,-3.21,-4.28,-0.13,-0.02,0.03,-38.74,15.03,-74.354646.00,-8.45,-3.30,-4.30,-0.15,-0.05,0.02,-38.74,15.03,-74.354697.00,-8.49,-3.27,-4.25,-0.14,-0.02,0.05,-40.12,14.34,-75.684748.00,-8.53,-3.30,-4.22,-0.12,-0.03,0.04,-40.12,14.34,-75.684798.00,-8.50,-3.32,-4.24,-0.11,-0.02,0.02,-40.12,14.34,-75.684850.00,-8.53,-3.37,-4.23,-0.13,-0.03,0.02,-39.43,15.03,-77.014901.00,-8.50,-3.35,-4.17,-0.13,-0.03,0.01,-39.43,15.03,-77.014951.00,-8.47,-3.32,-4.27,-0.14,-0.04,0.02,-39.60,15.55,-76.855003.00,-8.57,-3.34,-4.13,-0.12,-0.02,0.01,-39.60,15.55,-76.855053.00,-8.43,-3.37,-4.25,-0.13,-0.05,0.00,-39.60,15.55,-76.855104.00,-8.51,-3.28,-4.18,-0.13,-0.04,0.02,-38.57,15.55,-74.855157.00,-8.46,-3.32,-4.26,-0.13,-0.03,0.01,-38.57,15.55,-74.855207.00,-8.50,-3.33,-4.22,-0.12,-0.03,0.02,-39.26,14.86,-76.525258.00,-8.55,-3.30,-4.19,-0.10,-0.03,0.01,-39.26,14.86,-76.525310.00,-8.43,-3.34,-4.22,-0.08,-0.05,0.01,-39.26,14.86,-76.525361.00,-7.34,-3.68,-5.14,0.02,0.04,-0.11,-40.12,15.72,-76.685411.00,-9.53,-4.30,-2.55,0.12,0.42,-0.07,-40.12,15.72,-76.685463.00,-8.67,-3.29,-4.57,-0.51,-0.10,-0.16,-40.12,16.07,-76.685514.00,-8.89,-2.82,-3.94,-0.62,0.00,-0.22,-40.12,16.07,-76.685564.00,-8.87,-3.63,-2.71,-1.25,-0.06,-0.36,-40.12,16.07,-76.685616.00,-9.24,-0.38,-5.80,-1.74,0.02,0.02,-38.92,13.48,-77.185666.00,-8.70,-2.62,-4.50,0.30,0.35,0.99,-38.92,13.48,-77.185717.00,-8.36,-2.48,-5.66,0.83,0.14,0.63,-40.12,15.03,-78.685769.00,-8.01,-4.47,-4.10,1.07,-0.25,0.14,-40.12,15.03,-78.685819.00,-9.62,-2.48,-3.59,-1.45,-0.79,-1.18,-40.81,14.69,-78.685870.00,-8.82,-1.78,-4.85,-2.01,-0.50,-1.26,-40.81,14.69,-78.685922.00,-8.83,1.80,-5.41,-1.34,-0.33,-0.60,-40.81,14.69,-78.685972.00,-9.63,-0.49,-5.18,0.49,-0.09,0.74,-38.74,7.78,-76.686023.00,-7.25,-2.47,-6.51,0.08,-0.87,0.37,-38.74,7.78,-76.686075.00,-7.37,-2.14,-6.73,-0.06,-0.19,0.15,-38.74,7.78,-76.686126.00,-8.89,-1.74,-5.02,-0.11,0.61,0.11,-39.26,9.68,-71.866176.00,-9.53,-2.28,-3.40,-0.17,0.65,0.21,-39.26,9.68,-71.866228.00,-8.64,-2.14,-4.04,-0.19,0.47,0.27,-39.43,10.89,-76.026279.00,-6.99,-2.54,-7.05,0.06,-0.37,0.10,-39.43,10.89,-76.026329.00,-7.29,-3.24,-6.23,0.41,-0.13,0.03,-38.92,12.44,-76.186381.00,-9.04,-2.65,-3.97,0.35,-0.02,-0.05,-38.92,12.44,-76.186432.00,-9.04,-2.48,-3.85,0.13,-0.01,-0.01,-38.92,12.44,-76.186482.00,-8.47,-2.76,-4.81,-0.00,-0.12,0.06,-40.47,12.27,-75.686535.00,-8.34,-2.66,-4.84,0.01,-0.01,0.04,-40.47,12.27,-75.686585.00,-8.56,-2.83,-4.47,-0.05,-0.01,0.03,-39.26,12.09,-75.526635.00,-8.58,-2.68,-4.60,-0.12,-0.03,0.01,-39.26,12.09,-75.526687.00,-8.48,-2.79,-4.60,-0.14,-0.05,0.01,-39.26,12.09,-75.526737.00,-8.56,-2.78,-4.60,-0.16,-0.03,0.01,-39.60,13.48,-76.526789.00,-8.56,-2.72,-4.63,-0.13,-0.03,-0.00,-39.60,13.48,-76.526839.00,-8.43,-2.81,-4.59,-0.11,-0.01,-0.02,-40.47,13.30,-75.686890.00,-8.39,-2.66,-5.22,-0.10,0.18,-0.10,-40.47,13.30,-75.686942.00,-8.71,-2.72,-4.22,-0.19,0.02,-0.02,-40.47,13.30,-75.686992.00,-8.89,-3.22,-3.65,-0.32,0.03,-0.05,-39.95,12.79,-77.517042.00,-9.14,-2.87,-2.84,-1.19,0.03,0.00,-39.95,12.79,-77.517094.00,-8.43,-0.90,-6.10,-1.31,0.07,0.26,-40.47,10.89,-76.027145.00,-7.55,-3.40,-5.05,0.57,0.34,1.04,-40.47,10.89,-76.027195.00,-7.80,-2.86,-5.17,1.05,0.09,0.51,-40.47,10.89,-76.027248.00,-8.99,-4.69,-2.30,0.17,-0.48,-0.52,-40.29,15.20,-77.857298.00,-9.58,-2.72,-3.93,-1.05,-0.71,-1.28,-40.29,15.20,-77.857348.00,-9.20,-1.04,-4.08,-1.83,-0.18,-0.84,-40.12,10.54,-75.357401.00,-9.01,-0.55,-4.92,-0.29,-0.04,0.45,-40.12,10.54,-75.357452.00,-8.04,-1.00,-5.77,-0.42,-1.19,0.46,-40.12,10.54,-75.357502.00,-7.28,-1.76,-6.97,0.01,-0.45,0.23,-39.78,8.81,-75.027555.00,-7.88,-1.97,-6.30,0.02,0.03,0.14,-39.78,8.81,-75.027605.00,-9.33,-1.83,-4.25,-0.09,0.59,0.21,-38.57,10.71,-74.197655.00,-8.46,-2.00,-4.26,-0.11,0.49,0.31,-38.57,10.71,-74.197708.00,-7.29,-2.71,-6.96,-0.01,-0.41,0.02,-38.40,12.61,-74.697758.00,-7.43,-3.00,-4.92,0.74,-0.28,-0.19,-38.40,12.61,-74.697809.00,-8.59,-1.52,-5.56,0.88,-0.38,-0.23,-38.40,12.61,-74.697861.00,-8.66,-2.83,-5.52,1.04,0.38,-0.14,-37.88,12.79,-74.857912.00,-8.99,-2.93,-4.03,0.49,0.32,0.19,-37.88,12.79,-74.857962.00,-8.13,-3.41,-4.87,-0.38,0.11,0.31,-39.78,15.03,-74.028015.00,-8.41,-2.81,-4.76,-0.33,0.02,0.16,-39.78,15.03,-74.028065.00,-8.43,-3.05,-4.52,-0.14,-0.03,0.03,-39.78,15.03,-74.028116.00,-8.17,-3.00,-5.03,-0.11,0.02,-0.04,-40.12,13.65,-75.688168.00,-8.44,-2.85,-4.69,-0.12,-0.01,-0.03,-40.12,13.65,-75.688219.00,-8.02,-3.04,-5.07,-0.07,0.05,-0.03,-38.74,13.65,-75.358269.00,-10.01,-2.43,-4.35,0.05,0.45,-0.13,-38.74,13.65,-75.358322.00,-8.90,-3.02,-4.03,-0.29,0.03,-0.04,-38.74,13.65,-75.358372.00,-9.07,-2.87,-2.51,-0.77,0.03,-0.13,-40.47,13.30,-76.688423.00,-8.05,-1.35,-5.57,-1.27,0.19,0.30,-40.47,13.30,-76.688476.00,-7.99,-2.77,-4.30,-0.07,0.42,0.82,-39.26,13.82,-77.858526.00,-7.80,-3.45,-4.85,0.97,0.15,0.56,-39.26,13.82,-77.858577.00,-8.99,-3.94,-3.76,0.47,-0.33,-0.09,-39.26,13.82,-77.858629.00,-9.62,-2.43,-3.98,-1.04,-0.81,-1.20,-40.12,16.41,-78.358680.00,-8.50,-3.96,-2.60,-1.30,-0.34,-0.97,-40.12,16.41,-78.358730.00,-9.00,-0.48,-5.96,-1.06,-0.10,-0.27,-39.95,8.98,-75.528783.00,-8.06,-0.87,-6.38,0.04,0.06,0.41,-39.95,8.98,-75.528834.00,-10.99,-2.43,-1.88,0.65,-0.56,0.28,-39.95,8.98,-75.528884.00,-7.36,-2.51,-6.65,-0.16,-0.61,0.21,-39.26,11.40,-75.198936.00,-7.90,-2.04,-6.27,-0.15,0.17,0.11,-39.26,11.40,-75.198986.00,-9.36,-2.24,-4.03,-0.29,0.77,0.28,-39.78,12.61,-73.369038.00,-8.08,-2.64,-4.02,-0.17,0.62,0.38,-39.78,12.61,-73.369089.00,-7.69,-2.21,-5.69,-0.31,-0.14,0.01,-38.57,13.13,-77.189139.00,-7.16,-3.42,-5.80,0.04,-0.46,-0.03,-38.57,13.13,-77.189191.00,-10.08,-2.77,-2.98,0.06,-0.69,-0.15,-38.57,13.13,-77.189241.00,-7.25,-2.32,-6.68,0.27,-1.08,-0.25,-39.60,13.82,-73.529292.00,-7.93,-1.72,-6.51,0.57,0.03,-0.24,-39.60,13.82,-73.529345.00,-8.81,-2.89,-4.40,0.36,0.20,-0.02,-40.47,11.23,-73.029395.00,-8.16,-2.87,-5.38,-0.14,0.02,0.03,-40.47,11.23,-73.029446.00,-8.55,-2.58,-4.83,-0.13,0.13,0.09,-40.47,11.23,-73.029498.00,-8.30,-2.72,-4.91,-0.16,0.02,0.06,-39.43,13.65,-73.699550.00,-8.32,-2.78,-4.92,-0.14,0.00,-0.02,-39.43,13.65,-73.699600.00,-8.36,-2.66,-5.06,-0.14,-0.03,-0.01,-39.09,13.30,-73.699653.00,-8.18,-2.83,-5.05,-0.15,-0.02,0.02,-39.09,13.30,-73.699704.00,-8.47,-2.64,-4.84,-0.17,-0.04,0.01,-40.98,12.79,-74.529755.00,-8.19,-2.75,-5.12,-0.14,-0.02,0.03,-40.98,12.79,-74.529807.00,-8.38,-2.81,-4.79,-0.13,-0.01,0.02,-40.98,12.79,-74.529858.00,-8.18,-2.73,-5.18,-0.17,-0.02,0.01,-38.06,13.65,-75.359909.00,-8.41,-2.74,-4.85,-0.12,0.01,0.00,-38.06,13.65,-75.359962.00,-8.48,-2.69,-4.75,-0.13,-0.00,-0.00,-38.06,13.65,-75.3510012.00,-8.30,-2.73,-5.03,-0.15,-0.03,0.02,-39.43,12.96,-74.6910063.00,-8.45,-2.72,-4.78,-0.12,-0.04,0.02,-39.43,12.96,-74.6910115.00,-8.29,-2.72,-5.00,-0.14,-0.02,0.01,-39.43,14.69,-74.3510166.00,-8.35,-2.71,-4.92,-0.15,-0.04,0.01,-39.43,14.69,-74.3510217.00,-8.33,-2.76,-4.88,-0.13,-0.02,0.01,-39.43,14.69,-74.3510269.00,-8.34,-2.71,-4.93,-0.10,-0.04,0.01,-40.98,12.79,-74.1910320.00,-7.90,-2.83,-5.34,-0.08,0.07,-0.05,-40.98,12.79,-74.1910371.00,-8.99,-2.76,-3.78,-0.23,0.26,-0.09,-40.47,11.92,-75.0210423.00,-8.59,-2.61,-4.71,-0.31,0.06,-0.03,-40.47,11.92,-75.0210474.00,-8.75,-2.59,-4.25,-0.44,-0.00,-0.10,-39.95,12.09,-74.5210525.00,-8.27,-3.28,-3.71,-1.18,0.12,0.04,-39.95,12.09,-74.5210577.00,-7.70,-2.39,-4.97,-0.96,0.22,0.39,-39.95,12.09,-74.5210628.00,-8.04,0.03,-7.48,0.15,0.20,0.76,-40.47,11.23,-76.6810678.00,-8.06,-3.70,-4.74,1.21,0.14,0.64,-40.47,11.23,-76.6810731.00,-9.66,-3.70,-3.12,0.01,-0.48,-0.50,-38.74,16.07,-76.6810782.00,-8.58,-3.86,-3.63,-0.76,-0.61,-1.05,-38.74,16.07,-76.6810832.00,-8.40,-1.47,-4.59,-1.41,-0.18,-0.83,-38.74,16.07,-76.6810885.00,-8.80,0.41,-4.97,-0.88,-0.05,0.09,-39.43,8.81,-76.0210936.00,-10.79,-2.71,-2.79,-0.04,-0.76,0.71,-39.43,8.81,-76.0210986.00,-6.23,-2.09,-7.84,-0.01,-0.65,0.29,-39.60,11.06,-73.5211039.00,-7.87,-2.35,-5.90,0.02,0.07,0.06,-39.60,11.06,-73.5211090.00,-8.19,-1.65,-5.70,-0.07,0.20,-0.01,-37.88,10.71,-73.1911141.00,-8.43,-1.89,-5.27,-0.03,0.14,0.01,-37.88,10.71,-73.1911193.00,-8.29,-1.93,-5.51,-0.06,0.02,0.04,-37.88,10.71,-73.1911243.00,-8.31,-1.99,-5.37,-0.07,-0.02,0.04,-39.60,8.98,-72.8611294.00,-8.38,-2.04,-5.18,-0.02,-0.01,0.04,-39.60,8.98,-72.8611345.00,-8.07,-2.04,-5.69,-0.10,0.03,0.05,-39.26,12.44,-73.5211395.00,-8.26,-2.07,-5.34,-0.08,0.05,0.03,-39.26,12.44,-73.5211447.00,-8.29,-2.06,-5.44,-0.08,0.09,-0.00,-39.26,12.44,-73.5211498.00,-8.43,-2.10,-5.15,-0.09,0.07,0.00,-38.40,11.23,-74.3511549.00,-8.30,-2.13,-5.33,-0.14,-0.01,0.02,-38.40,11.23,-74.3511601.00,-8.38,-2.12,-5.22,-0.14,-0.03,0.01,-40.47,11.23,-72.3611652.00,-8.30,-2.07,-5.35,-0.14,-0.02,0.02,-40.47,11.23,-72.3611703.00,-8.37,-2.15,-5.20,-0.14,-0.02,0.01,-40.47,11.23,-72.3611755.00,-8.38,-2.06,-5.26,-0.14,-0.00,0.01,-39.78,11.23,-73.6911806.00,-8.28,-2.07,-5.37,-0.14,0.01,0.00,-39.78,11.23,-73.6911857.00,-8.50,-1.95,-5.10,-0.13,0.01,0.01,-39.60,11.06,-73.8511910.00,-8.33,-2.05,-5.29,-0.14,-0.04,0.01,-39.60,11.06,-73.8511961.00,-8.37,-2.00,-5.27,-0.13,-0.04,0.02,-39.60,11.06,-73.8512012.00,-8.43,-2.04,-5.25,-0.11,-0.03,0.04,-40.64,11.75,-74.5212065.00,-8.50,-1.96,-5.27,-0.13,-0.06,0.04,-40.64,11.75,-74.5212116.00,-8.99,-1.87,-5.19,-0.09,-0.07,0.15,-38.92,10.37,-74.5212167.00,-8.93,-2.33,-5.08,-0.04,0.29,0.18,-38.92,10.37,-74.5212219.00,-9.04,-2.20,-3.69,-0.10,0.27,0.27,-38.92,10.37,-74.5212270.00,-6.76,-2.43,-4.98,-0.26,0.28,0.16,-39.60,12.79,-74.5212321.00,-7.51,-2.77,-4.83,-0.16,0.13,-0.08,-39.60,12.79,-74.5212374.00,-7.31,-2.99,-6.46,0.11,-0.26,-0.11,-40.81,12.27,-77.0112424.00,-8.85,-2.46,-4.83,0.36,-0.08,-0.13,-40.81,12.27,-77.0112475.00,-8.27,-2.33,-5.07,0.19,-0.16,0.03,-39.43,13.30,-75.6812528.00,-8.48,-2.82,-4.58,0.17,-0.03,0.03,-39.43,13.30,-75.6812579.00,-8.73,-2.59,-4.68,0.00,-0.02,-0.00,-39.43,13.30,-75.6812629.00,-8.48,-2.55,-4.97,-0.12,-0.05,-0.01,-38.23,12.79,-75.1912682.00,-8.45,-2.61,-4.87,-0.12,-0.05,0.00,-38.23,12.79,-75.1912733.00,-7.86,-2.70,-5.32,-0.13,0.07,-0.06,-40.47,11.58,-74.6912783.00,-9.62,-2.47,-4.39,-0.06,0.39,-0.19,-40.47,11.58,-74.6912836.00,-8.94,-2.30,-4.12,-0.40,0.05,-0.13,-40.47,11.58,-74.6912887.00,-9.18,-2.55,-3.76,-0.98,0.04,-0.13,-41.33,13.82,-77.5112938.00,-8.58,-1.94,-4.66,-1.14,0.11,0.17,-41.33,13.82,-77.5112991.00,-7.34,-2.66,-5.60,0.10,0.29,0.81,-41.50,11.92,-78.6813041.00,-8.36,-3.18,-5.40,1.36,0.23,0.95,-41.50,11.92,-78.6813092.00,-9.08,-4.11,-2.55,0.45,-0.37,-0.21,-41.50,11.92,-78.6813145.00,-9.15,-4.10,-2.95,-0.81,-0.69,-1.05,-40.12,16.41,-77.6813196.00,-8.95,-1.84,-3.96,-1.33,-0.23,-0.98,-40.12,16.41,-77.6813246.00,-8.53,-0.46,-4.92,-1.35,-0.12,-0.50,-40.81,8.81,-76.0213299.00,-7.97,-0.11,-6.85,-0.21,-0.06,0.42,-40.81,8.81,-76.0213350.00,-7.79,-1.54,-5.19,0.20,-1.48,0.48,-39.95,10.71,-75.5213401.00,-6.81,-2.38,-7.13,-0.20,-0.58,0.25,-39.95,10.71,-75.5213453.00,-8.22,-2.00,-5.71,-0.19,0.36,-0.04,-39.95,10.71,-75.5213504.00,-8.38,-1.91,-5.32,-0.12,0.33,-0.00,-39.26,11.40,-74.5213556.00,-9.00,-1.64,-4.75,-0.20,0.32,0.09,-39.26,11.40,-74.5213607.00,-8.38,-1.81,-4.87,-0.18,0.19,0.17,-39.26,11.40,-74.5213657.00,-8.28,-2.27,-4.86,-0.12,0.14,0.12,-40.64,12.44,-74.1913709.00,-8.40,-2.13,-4.84,-0.00,0.01,0.07,-40.64,12.44,-74.1913760.00,-8.15,-2.44,-4.74,-0.12,-0.03,0.08,-39.95,11.75,-76.5213811.00,-8.80,-2.15,-4.87,-0.04,-0.04,-0.04,-39.95,11.75,-76.5213863.00,-8.61,-2.05,-4.84,-0.12,-0.11,0.02,-40.98,10.71,-75.8513914.00,-8.35,-2.11,-5.23,-0.11,-0.09,0.03,-40.98,10.71,-75.8513965.00,-8.63,-2.10,-4.94,-0.11,-0.09,0.04,-40.98,10.71,-75.8514018.00,-8.44,-2.11,-5.16,-0.11,-0.05,0.02,-40.64,12.44,-75.1914069.00,-8.43,-2.07,-5.16,-0.13,-0.06,-0.01,-40.64,12.44,-75.1914119.00,-8.50,-2.05,-5.11,-0.13,-0.03,0.00,-39.43,12.27,-74.6914172.00,-8.38,-2.05,-5.19,-0.15,-0.04,-0.01,-39.43,12.27,-74.6914224.00,-8.48,-2.19,-5.01,-0.15,-0.02,0.01,-39.43,12.27,-74.6914274.00,-8.52,-2.04,-5.08,-0.13,-0.02,-0.01,-39.78,12.27,-76.0214327.00,-8.30,-2.15,-5.24,-0.15,-0.02,0.01,-39.78,12.27,-76.0214378.00,-8.62,-2.05,-4.88,-0.13,-0.01,0.01,-39.78,11.92,-75.6814429.00,-8.15,-2.12,-5.33,-0.16,-0.02,0.01,-39.78,11.92,-75.6814482.00,-8.52,-1.99,-5.20,-0.16,-0.03,-0.01,-39.78,11.92,-75.6814533.00,-8.62,-2.01,-5.00,-0.15,-0.02,-0.02,-40.64,11.06,-75.1914583.00,-8.33,-2.04,-5.17,-0.16,-0.03,0.01,-40.64,11.06,-75.1914637.00,-8.53,-1.97,-5.12,-0.16,-0.03,0.01,-40.64,12.44,-74.8514687.00,-8.42,-1.99,-5.19,-0.15,-0.03,0.01,-40.64,12.44,-74.8514738.00,-8.32,-2.12,-5.21,-0.14,-0.04,0.02,-40.47,11.58,-76.6814791.00,-8.54,-1.93,-5.06,-0.13,-0.03,0.00,-40.47,11.58,-76.6814842.00,-8.38,-2.07,-5.18,-0.16,-0.05,0.01,-40.47,11.58,-76.6814893.00,-8.64,-1.93,-4.92,-0.14,-0.04,-0.01,-39.43,11.23,-75.3514946.00,-8.37,-1.98,-5.41,-0.16,-0.04,-0.00,-39.43,11.23,-75.3514997.00,-8.52,-1.93,-5.04,-0.15,-0.03,0.02,-40.29,11.06,-75.1915048.00,-8.34,-1.99,-5.28,-0.14,-0.02,0.01,-40.29,11.06,-75.1915101.00,-8.19,-2.03,-5.34,-0.15,0.00,-0.03,-40.29,11.06,-75.1915152.00,-7.97,-2.10,-5.44,-0.05,0.50,-0.22,-39.60,11.06,-74.8515202.00,-9.67,-2.00,-3.29,-0.21,0.26,-0.15,-39.60,11.06,-74.8515256.00,-8.71,-1.49,-4.57,-0.70,-0.04,-0.12,-40.29,8.98,-77.5115306.00,-8.68,-1.51,-3.97,-1.05,0.05,0.02,-40.29,8.98,-77.5115357.00,-8.34,0.00,-7.40,-0.62,0.14,0.71,-41.15,9.85,-77.0115410.00,-7.94,-1.84,-5.92,0.92,0.17,0.83,-41.15,9.85,-77.0115461.00,-8.60,-3.97,-3.70,1.02,-0.10,0.22,-41.15,9.85,-77.0115512.00,-9.55,-2.57,-3.97,-0.56,-0.65,-1.29,-40.47,14.69,-78.0115565.00,-9.33,-0.93,-3.40,-0.96,-0.24,-1.07,-40.47,14.69,-78.0115616.00,-8.72,1.02,-5.28,-1.23,-0.19,-0.40,-39.95,7.26,-76.5215667.00,-8.31,-1.53,-5.44,-0.61,0.00,0.47,-39.95,7.26,-76.5215719.00,-11.45,-2.14,-2.81,0.66,-0.55,0.47,-39.95,7.26,-76.5215770.00,-6.98,-1.60,-5.81,0.06,-1.14,0.37,-40.29,8.64,-74.1915822.00,-7.07,-1.41,-6.85,-0.07,0.26,0.12,-40.29,8.64,-74.1915873.00,-9.59,-1.17,-4.23,-0.03,0.65,0.07,-40.81,10.19,-75.3515924.00,-8.82,-0.98,-4.98,-0.06,0.24,0.13,-40.81,10.19,-75.3515976.00,-8.35,-2.06,-3.91,0.32,-0.03,0.16,-40.81,10.19,-75.3516027.00,-7.93,-1.97,-5.94,0.05,-0.22,-0.03,-41.50,12.61,-76.0216078.00,-8.01,-2.28,-5.39,0.21,-0.07,-0.02,-41.50,12.61,-76.0216131.00,-9.35,-1.54,-4.36,-0.05,-0.01,-0.08,-40.64,12.09,-74.8516182.00,-8.13,-1.94,-5.65,-0.17,-0.06,0.03,-40.64,12.09,-74.8516233.00,-8.76,-1.86,-4.82,-0.15,-0.01,-0.02,-39.26,13.82,-75.8516286.00,-8.33,-1.94,-5.34,-0.17,-0.04,0.02,-39.26,13.82,-75.8516338.00,-8.55,-1.90,-4.96,-0.12,-0.03,0.01,-39.26,13.82,-75.8516389.00,-8.52,-1.87,-5.10,-0.17,-0.02,0.01,-40.47,12.96,-75.3516442.00,-8.61,-1.79,-5.00,-0.14,-0.03,0.01,-40.47,12.96,-75.3516493.00,-8.32,-1.95,-5.20,-0.15,-0.04,0.01,-41.33,11.06,-74.8516545.00,-8.70,-1.86,-4.87,-0.13,-0.02,0.02,-41.33,11.06,-74.8516598.00,-8.61,-1.72,-5.07,-0.16,-0.03,-0.00,-41.33,11.06,-74.8516649.00,-8.40,-1.92,-5.15,-0.14,-0.07,0.04,-39.60,12.44,-76.1816700.00,-8.55,-1.85,-5.01,-0.13,-0.04,0.01,-39.60,12.44,-76.1816754.00,-8.38,-1.79,-5.27,-0.15,-0.02,0.00,-38.74,11.58,-75.3516805.00,-8.65,-1.85,-4.88,-0.14,-0.02,0.00,-38.74,11.58,-75.3516855.00,-8.42,-1.76,-5.32,-0.18,-0.03,0.01,-38.74,11.58,-75.3516908.00,-8.66,-1.73,-4.96,-0.15,-0.05,0.01,-38.92,10.71,-74.8516960.00,-8.55,-1.78,-5.14,-0.13,-0.01,0.02,-38.92,10.71,-74.8517010.00,-8.50,-1.87,-5.02,-0.11,-0.05,0.04,-38.57,10.71,-75.5217064.00,-8.54,-1.75,-5.06,-0.14,-0.00,0.00,-38.57,10.71,-75.5217115.00,-8.38,-1.85,-5.35,-0.15,-0.01,0.03,-39.60,11.06,-76.1817166.00,-8.65,-1.81,-4.89,-0.13,-0.02,0.02,-39.60,11.06,-76.1817219.00,-8.46,-1.82,-5.24,-0.13,-0.02,0.02,-39.60,11.06,-76.1817270.00,-8.43,-2.01,-5.02,-0.12,-0.01,0.00,-40.64,12.44,-76.1817321.00,-8.16,-1.88,-5.38,-0.01,0.41,-0.18,-40.64,12.44,-76.1817374.00,-8.95,-1.57,-4.51,-0.29,0.04,-0.08,-39.78,11.58,-77.6817425.00,-9.10,-1.93,-4.32,-0.41,0.11,-0.03,-39.78,11.58,-77.6817476.00,-8.78,-1.51,-4.29,-1.10,0.17,0.03,-39.78,11.58,-77.6817529.00,-8.66,-0.40,-5.58,-1.03,0.11,0.33,-42.36,8.98,-78.8417580.00,-7.82,-3.10,-5.56,0.30,0.06,0.96,-42.36,8.98,-78.8417631.00,-8.20,-2.57,-5.25,0.88,-0.02,0.50,-41.50,12.96,-78.6817684.00,-8.87,-2.74,-3.56,0.15,-0.37,-0.46,-41.50,12.96,-78.6817736.00,-9.00,-1.25,-4.16,-0.52,-0.25,-0.99,-41.50,12.96,-78.6817787.00,-8.79,-0.85,-5.42,-1.00,-0.05,-0.75,-39.95,11.06,-77.5117840.00,-8.63,-0.03,-5.91,-0.92,-0.03,0.00,-39.95,11.06,-77.5117891.00,-7.83,-0.61,-6.74,-0.29,-0.02,0.54,-41.15,7.78,-77.6817942.00,-9.33,-0.85,-3.86,0.20,-1.41,0.45,-41.15,7.78,-77.6817994.00,-6.83,-1.92,-6.99,-0.18,-0.32,0.15,-39.78,10.89,-73.0218045.00,-8.85,-1.33,-5.25,-0.16,0.46,-0.01,-39.78,10.89,-73.0218097.00,-7.70,-1.55,-5.59,-0.09,0.29,0.15,-39.78,10.89,-73.0218148.00,-8.11,-1.55,-5.64,0.09,0.20,0.06,-39.60,11.75,-75.5218199.00,-8.38,-1.92,-5.31,0.22,-0.05,-0.10,-39.60,11.75,-75.5218251.00,-8.77,-1.70,-4.71,0.04,-0.06,-0.03,-39.60,11.75,-75.5218302.00,-8.85,-1.57,-5.30,-0.14,-0.03,-0.02,-39.43,12.61,-75.3518353.00,-8.32,-1.69,-5.33,-0.14,-0.06,0.01,-39.43,12.61,-75.3518406.00,-8.36,-1.67,-5.53,-0.13,-0.07,0.02,-39.60,12.09,-74.8518457.00,-8.57,-1.58,-5.21,-0.03,-0.05,-0.01,-39.60,12.09,-74.8518508.00,-8.47,-1.63,-5.15,0.00,-0.05,0.04,-41.50,12.27,-75.3518562.00,-8.50,-1.74,-5.28,-0.16,-0.02,0.02,-41.50,12.27,-75.3518613.00,-8.48,-1.59,-5.13,-0.16,-0.05,0.04,-41.50,12.27,-75.3518664.00,-8.69,-1.47,-5.16,-0.13,-0.02,-0.01,-39.60,12.44,-74.1918717.00,-8.31,-1.75,-5.46,-0.17,-0.07,0.03,-39.60,12.44,-74.1918769.00,-8.59,-1.57,-5.16,-0.11,-0.02,0.02,-39.43,10.54,-75.0218820.00,-8.34,-1.70,-5.47,-0.12,-0.02,0.03,-39.43,10.54,-75.0218874.00,-8.68,-1.56,-4.97,-0.13,-0.00,0.03,-39.43,10.54,-75.0218925.00,-8.27,-1.74,-5.54,-0.13,-0.03,0.04,-40.47,10.19,-74.3518977.00,-8.42,-1.74,-5.26,-0.15,-0.05,0.03,-40.47,10.19,-74.3519030.00,-8.25,-1.77,-5.55,-0.14,-0.01,-0.02,-39.43,11.58,-76.3519081.00,-8.41,-1.67,-5.34,-0.17,-0.02,-0.00,-39.43,11.58,-76.3519132.00,-8.56,-1.54,-5.16,-0.14,0.01,-0.01,-40.98,11.40,-73.8519185.00,-8.38,-1.71,-5.34,-0.15,-0.03,0.03,-40.98,11.40,-73.8519236.00,-8.65,-1.61,-5.00,-0.12,-0.03,0.03,-40.98,11.40,-73.8519287.00,-8.28,-1.76,-5.39,-0.14,-0.06,0.03,-40.81,10.89,-76.3519341.00,-8.65,-1.63,-5.05,-0.11,-0.02,0.04,-40.81,10.89,-76.3519392.00,-8.25,-1.79,-5.39,-0.12,-0.05,0.05,-40.47,11.23,-74.6919443.00,-8.58,-1.73,-5.09,-0.15,-0.04,0.03,-40.47,11.23,-74.6919496.00,-8.52,-1.59,-5.21,-0.16,-0.02,-0.00,-40.64,11.23,-74.6919547.00,-8.50,-1.64,-5.18,-0.15,-0.03,0.03,-40.64,11.75,-75.1919598.00,-8.54,-1.59,-5.18,-0.14,-0.01,0.01,-40.64,11.75,-75.1919651.00,-8.48,-1.74,-5.22,-0.14,-0.04,0.04,-40.64,11.75,-75.1919703.00,-8.45,-1.66,-5.21,-0.09,0.00,-0.00,-40.64,11.75,-75.1919754.00,-7.49,-2.01,-6.00,-0.10,0.12,-0.07,-40.64,11.75,-75.1919807.00,-9.60,-1.46,-4.19,-0.24,0.24,-0.19,-39.78,12.27,-77.3519858.00,-9.30,-1.63,-4.44,-0.57,0.01,-0.19,-39.78,12.27,-77.3519909.00,-8.94,-0.68,-4.30,-1.07,0.10,-0.13,-40.47,10.54,-76.0219963.00,-8.45,0.71,-6.10,-0.94,0.13,0.48,-40.47,10.54,-76.0220014.00,-7.82,0.10,-7.18,-0.50,0.01,1.06,-40.81,11.58,-79.0120065.00,-7.69,-4.19,-4.33,1.28,0.05,0.49,-40.81,11.58,-79.0120118.00,-9.18,-1.39,-5.17,-0.11,-0.41,-1.05,-40.81,11.58,-79.0120170.00,-9.08,-1.44,-4.33,-0.29,-0.14,-1.03,-40.47,10.89,-76.3520221.00,-8.27,-1.76,-3.11,-1.07,-0.18,-0.53,-40.47,10.89,-76.3520273.00,-8.49,0.45,-6.27,-0.68,-0.04,0.38,-40.29,6.91,-76.8520325.00,-11.99,-2.43,-2.13,0.52,-0.45,0.62,-40.29,6.91,-76.8520377.00,-6.82,-1.82,-6.43,0.11,-0.93,0.38,-40.47,6.91,-76.8520428.00,-9.17,-1.07,-5.25,-0.11,0.18,0.12,-40.47,10.19,-73.0220479.00,-6.23,-1.34,-5.10,0.10,0.63,0.21,-40.47,10.19,-73.0220532.00,-7.59,-2.24,-7.53,0.60,-0.10,0.11,-41.33,11.75,-75.5220583.00,-7.18,-2.74,-4.85,0.55,-0.01,0.06,-41.33,11.75,-75.5220634.00,-10.37,-1.20,-4.15,0.16,0.11,-0.15,-41.33,11.75,-75.5220687.00,-7.69,-2.29,-5.89,-0.18,-0.13,0.04,-40.12,12.61,-73.6920739.00,-8.73,-1.78,-5.08,-0.13,-0.03,0.01,-40.12,12.61,-73.6920790.00,-8.10,-2.12,-5.42,-0.18,-0.06,0.02,-41.15,13.30,-74.3520843.00,-8.46,-1.91,-5.19,-0.23,-0.08,-0.07,-41.15,13.30,-74.3520894.00,-8.38,-1.71,-5.63,-0.28,-0.05,-0.03,-40.81,11.92,-75.3520945.00,-8.40,-1.99,-5.23,-0.19,-0.07,0.02,-40.81,11.92,-75.3520999.00,-8.41,-1.71,-5.31,-0.13,-0.03,0.01,-40.47,13.65,-73.6921050.00,-8.19,-1.86,-5.39,-0.14,-0.06,0.04,-40.47,13.65,-73.6921101.00,-8.50,-1.56,-5.29,-0.09,-0.04,0.03,-40.47,13.65,-73.6921155.00,-8.33,-1.93,-5.32,-0.08,-0.08,0.07,-39.78,13.30,-74.0221206.00,-8.25,-1.81,-5.45,-0.12,-0.00,-0.01,-39.78,13.30,-74.0221257.00,-8.61,-1.78,-5.16,-0.13,0.00,-0.01,-39.78,13.30,-74.0221311.00,-8.11,-1.87,-5.52,-0.12,0.00,-0.02,-40.47,12.27,-73.6921362.00,-8.45,-1.77,-5.28,-0.17,-0.03,0.03,-40.47,12.27,-73.6921413.00,-8.29,-1.69,-5.52,-0.16,-0.02,-0.00,-40.47,12.61,-74.6921467.00,-8.21,-1.82,-5.55,-0.14,-0.04,-0.00,-40.47,12.61,-74.6921518.00,-8.45,-1.73,-5.26,-0.12,-0.01,-0.01,-40.47,12.61,-74.6921569.00,-8.26,-1.81,-5.44,-0.12,-0.04,0.02,-41.15,12.27,-75.0221623.00,-8.41,-1.74,-5.33,-0.12,-0.03,0.01,-41.15,12.27,-75.0221675.00,-8.26,-1.82,-5.47,-0.12,-0.02,0.02,-39.95,11.75,-73.1921726.00,-8.28,-1.81,-5.45,-0.11,-0.04,0.01,-39.95,11.75,-73.1921779.00,-8.30,-1.75,-5.42,-0.10,-0.03,-0.02,-40.29,11.40,-74.5221830.00,-8.43,-1.71,-5.25,-0.12,-0.00,-0.06,-40.29,11.40,-74.5221882.00,-9.05,-1.94,-5.05,-0.17,0.24,-0.12,-39.60,12.09,-75.5221935.00,-8.58,-1.19,-5.34,-0.28,-0.01,-0.05,-39.60,12.09,-75.5221987.00,-8.48,-1.45,-5.15,-0.31,0.00,-0.06,-39.60,12.09,-75.5222038.00,-8.61,-1.71,-5.04,-0.25,-0.01,0.00,-40.47,11.58,-76.6822091.00,-8.43,-1.83,-4.69,-0.68,0.03,-0.01,-40.47,11.58,-76.6822143.00,-8.45,-0.06,-5.87,-1.23,0.11,0.30,-40.29,10.71,-74.8522194.00,-8.03,-0.33,-6.61,-0.16,0.21,0.89,-40.29,10.71,-74.8522247.00,-8.99,-1.84,-5.48,0.91,0.05,0.47,-40.29,10.71,-74.8522299.00,-9.16,-2.86,-4.20,0.14,-0.37,-0.46,-39.60,14.86,-77.1822350.00,-8.52,-1.95,-5.72,-0.83,-0.31,-1.28,-39.60,14.86,-77.1822404.00,-8.34,0.67,-5.51,-1.19,-0.06,-0.66,-40.81,7.78,-75.0222455.00,-7.93,0.17,-6.52,-0.63,-0.05,0.21,-40.81,7.78,-75.0222506.00,-11.42,-2.25,-3.00,0.51,-0.29,0.66,-40.81,7.78,-75.0222559.00,-7.61,-1.14,-5.90,0.04,-1.01,0.39,-40.29,8.98,-74.5222610.00,-7.17,-1.43,-6.54,0.03,-0.29,0.26,-40.29,8.98,-74.5222663.00,-8.02,-1.54,-5.59,-0.08,0.36,0.16,-39.43,13.65,-71.6922714.00,-7.87,-1.55,-5.87,-0.12,0.18,0.11,-39.43,13.65,-71.6922766.00,-8.89,-1.04,-5.36,-0.08,0.21,-0.06,-39.95,12.79,-72.8622818.00,-8.16,-1.24,-5.71,-0.10,-0.01,0.04,-39.95,12.79,-72.8622869.00,-8.35,-1.35,-5.53,-0.03,0.10,-0.05,-39.95,12.79,-72.8622921.00,-8.68,-1.24,-5.24,0.00,0.05,0.01,-40.64,12.09,-73.1922974.00,-8.27,-1.48,-5.57,-0.11,-0.04,0.06,-40.64,12.09,-73.1923026.00,-8.54,-1.34,-5.23,-0.11,-0.03,0.04,-40.98,10.02,-74.1923077.00,-8.28,-1.33,-5.78,-0.11,-0.05,0.06,-40.98,10.02,-74.1923130.00,-7.99,-1.71,-6.11,-0.05,-0.07,0.03,-40.98,10.02,-74.1923182.00,-8.28,-1.50,-5.40,-0.10,-0.02,0.02,-40.12,11.58,-74.0223233.00,-8.30,-1.44,-5.62,-0.11,-0.02,-0.01,-40.12,11.58,-74.0223287.00,-8.19,-1.66,-5.60,-0.12,-0.03,0.02,-40.47,11.92,-73.6923339.00,-8.43,-1.38,-5.40,-0.13,-0.01,-0.00,-40.47,11.92,-73.6923391.00,-8.27,-1.49,-5.63,-0.10,-0.01,-0.01,-40.47,11.92,-73.6923444.00,-8.25,-1.58,-5.57,-0.11,-0.01,-0.02,-42.02,11.40,-73.1923496.00,-8.55,-1.40,-5.37,-0.14,0.04,-0.01,-42.02,11.40,-73.1923548.00,-8.32,-1.47,-5.55,-0.16,0.00,-0.01,-39.43,12.27,-73.3623602.00,-8.39,-1.49,-5.39,-0.15,-0.03,0.02,-39.43,12.27,-73.3623653.00,-8.38,-1.39,-5.44,-0.15,-0.02,0.01,-40.29,11.06,-74.1923704.00,-8.30,-1.47,-5.53,-0.13,0.00,0.01,-40.29,11.06,-74.1923758.00,-8.41,-1.43,-5.43,-0.11,0.02,0.00,-40.29,11.06,-74.1923810.00,-8.47,-1.42,-5.33,-0.09,0.06,-0.01,-41.67,10.02,-74.1923861.00,-8.53,-1.40,-5.27,-0.12,-0.01,0.01,-41.67,10.02,-74.1923914.00,-8.49,-1.39,-5.34,-0.20,-0.00,0.00,-40.64,11.40,-73.8523966.00,-8.28,-1.58,-5.29,-0.16,0.01,-0.00,-40.64,11.40,-73.8524017.00,-8.38,-1.45,-5.32,-0.15,-0.01,-0.03,-40.64,11.40,-73.8524071.00,-8.66,-1.28,-5.19,-0.15,0.01,-0.06,-40.29,9.33,-75.8524122.00,-8.25,-1.32,-5.66,-0.14,0.31,-0.17,-40.29,9.33,-75.8524174.00,-9.08,-0.72,-4.50,-0.31,0.11,-0.11,-40.12,9.50,-75.3524227.00,-8.93,-1.11,-4.35,-0.44,0.02,-0.10,-40.12,9.50,-75.3524279.00,-9.52,-1.29,-4.08,-0.80,0.01,-0.01,-40.64,10.02,-76.5224330.00,-8.00,-0.27,-6.29,-0.75,0.14,0.54,-40.64,10.02,-76.5224384.00,-7.88,-0.53,-6.66,0.36,0.14,0.72,-40.64,10.02,-76.5224436.00,-8.91,-3.21,-3.66,1.16,-0.01,0.26,-42.19,10.89,-78.0124487.00,-9.98,-2.25,-3.58,-0.28,-0.42,-1.01,-42.19,10.89,-78.0124541.00,-9.17,-1.73,-3.44,-1.05,-0.24,-1.02,-40.98,8.98,-76.8524592.00,-8.44,1.26,-6.75,-1.06,-0.19,-0.27,-40.98,8.98,-76.8524644.00,-8.30,0.79,-6.10,0.66,0.04,0.52,-42.19,8.12,-76.6824697.00,-10.25,-0.46,-3.62,0.43,-0.66,0.33,-42.19,8.12,-76.6824749.00,-7.07,-1.39,-6.03,-0.15,-0.23,0.29,-42.19,8.12,-76.6824800.00,-9.17,-0.55,-5.79,-0.23,0.32,0.24,-40.64,10.71,-74.1924853.00,-7.69,-1.23,-5.20,0.06,0.52,0.38,-40.64,10.71,-74.1924904.00,-6.03,-2.88,-6.30,0.27,-0.46,0.36,-41.33,12.44,-75.8524956.00,-8.55,-2.01,-5.23,0.50,-0.28,-0.12,-41.33,12.44,-75.8525008.00,-8.22,-1.88,-5.60,0.52,-0.74,0.17,-41.33,12.44,-75.8525059.00,-7.50,-2.02,-6.96,0.09,-0.40,0.03,-41.50,15.03,-73.0225112.00,-8.48,-2.13,-5.18,-0.17,-0.04,0.02,-41.50,15.03,-73.0225163.00,-7.69,-2.00,-6.39,-0.28,0.03,0.02,-40.98,13.82,-72.5225215.00,-8.53,-2.09,-5.14,-0.10,0.00,0.06,-40.98,13.82,-72.5225268.00,-8.32,-1.80,-5.57,-0.12,0.07,-0.00,-39.78,12.96,-72.3625320.00,-8.18,-1.93,-5.60,-0.15,-0.05,0.03,-39.78,12.96,-72.3625371.00,-8.36,-1.77,-5.58,-0.13,0.00,-0.03,-39.78,12.96,-72.3625425.00,-7.62,-2.32,-5.91,-0.20,-0.01,0.03,-41.33,12.44,-72.8625477.00,-8.61,-1.72,-5.32,-0.23,0.08,-0.04,-41.33,12.44,-72.8625528.00,-8.16,-1.96,-5.63,-0.20,0.01,0.01,-41.15,14.00,-73.3625582.00,-8.16,-1.85,-5.70,-0.19,-0.02,0.03,-41.15,14.00,-73.3625634.00,-8.38,-1.84,-5.39,-0.13,-0.01,0.03,-41.15,14.00,-73.3625686.00,-8.19,-2.00,-5.58,-0.11,-0.01,0.03,-42.36,13.82,-72.5225739.00,-8.13,-1.98,-5.64,-0.12,-0.02,0.01,-42.36,13.82,-72.5225791.00,-8.20,-1.99,-5.50,-0.21,0.00,-0.03,-41.15,14.00,-73.0225843.00,-8.16,-1.89,-5.66,-0.24,0.01,-0.04,-41.15,14.00,-73.0225897.00,-8.31,-1.84,-5.47,-0.20,0.02,-0.00,-41.15,14.00,-73.0225948.00,-8.22,-1.85,-5.55,-0.12,-0.01,0.04,-39.95,13.13,-73.1926000.00,-8.25,-1.90,-5.49,-0.12,-0.03,0.02,-39.95,13.13,-73.1926054.00,-8.38,-1.81,-5.40,-0.13,-0.01,0.02,-40.47,14.69,-72.0226105.00,-8.03,-1.96,-5.72,-0.13,-0.00,0.00,-40.47,14.69,-72.0226156.00,-7.19,-2.13,-6.31,-0.16,0.11,-0.09,-42.02,13.13,-74.1926210.00,-9.58,-1.77,-3.97,-0.30,0.28,-0.28,-42.02,13.13,-74.1926262.00,-8.55,-1.24,-5.57,-0.57,-0.04,-0.17,-42.02,13.13,-74.1926313.00,-8.50,-1.95,-4.21,-0.79,0.07,-0.12,-41.15,11.92,-75.0226367.00,-8.04,1.57,-7.20,-1.08,0.11,0.31,-41.15,11.92,-75.0226419.00,-7.33,-1.21,-6.03,-0.15,0.21,0.92,-40.12,12.27,-76.3526470.00,-8.20,-4.36,-3.73,1.12,0.05,0.46,-40.12,12.27,-76.3526524.00,-9.03,-3.55,-3.44,0.21,-0.30,-0.41,-40.12,12.27,-76.3526575.00,-9.20,-1.25,-4.34,-0.68,-0.20,-1.16,-40.29,14.51,-75.8526628.00,-9.23,2.83,-6.16,-0.48,-0.06,0.13,-40.29,14.51,-75.8526685.00,-9.50,0.56,-5.24,-0.21,-1.34,0.85,-41.84,11.23,-75.3526735.00,-6.41,-2.72,-7.38,0.03,-0.48,0.32,-41.84,11.23,-75.3526785.00,-8.18,-1.44,-5.92,-0.16,0.09,-0.02,-41.84,11.23,-75.3526837.00,-8.46,-1.02,-6.02,-0.23,0.27,0.10,-40.98,12.09,-71.1926888.00,-8.91,-1.15,-5.28,-0.40,0.51,0.30,-40.98,12.09,-71.1926937.00,-7.24,-2.62,-5.57,-0.18,0.24,0.33,-41.15,12.96,-74.3526990.00,-8.12,-1.52,-5.88,-0.03,-0.06,-0.11,-41.15,12.96,-74.3527040.00,-8.71,-1.33,-5.15,-0.01,-0.05,-0.12,-40.64,14.86,-73.8527090.00,-8.05,-1.67,-5.86,-0.09,-0.10,-0.06,-40.64,14.86,-73.8527141.00,-8.38,-1.49,-5.53,-0.11,-0.05,-0.04,-40.64,14.86,-73.8527192.00,-8.40,-1.57,-5.43,-0.10,-0.02,-0.04,-41.15,13.30,-75.0227243.00,-8.15,-1.55,-5.75,-0.13,-0.06,-0.02,-41.15,13.30,-75.0227294.00,-8.26,-1.57,-5.59,-0.08,0.01,-0.02,-41.50,14.00,-72.3627344.00,-8.38,-1.50,-5.45,-0.12,0.01,-0.05,-41.50,14.00,-72.3627395.00,-7.96,-1.72,-5.78,-0.13,-0.01,0.03,-41.50,14.00,-72.3627445.00,-8.53,-1.41,-5.41,-0.15,0.04,-0.02,-41.50,13.65,-73.3627495.00,-8.00,-1.72,-5.75,-0.12,-0.02,-0.04,-41.50,13.65,-73.3627547.00,-8.75,-1.31,-5.14,-0.09,0.02,-0.03,-41.33,13.13,-74.5227598.00,-8.10,-1.47,-5.83,-0.12,-0.05,0.05,-41.33,13.13,-74.5227648.00,-8.45,-1.44,-5.36,-0.15,-0.03,0.02,-41.33,13.13,-74.5227700.00,-8.22,-1.46,-5.70,-0.14,-0.03,0.01,-40.98,12.79,-73.8527750.00,-8.27,-1.55,-5.53,-0.13,-0.04,0.02,-40.98,12.79,-73.8527800.00,-8.25,-1.49,-5.66,-0.14,-0.01,-0.01,-41.84,13.30,-73.3627853.00,-8.38,-1.50,-5.38,-0.13,-0.02,0.01,-41.84,13.30,-73.3627903.00,-8.40,-1.43,-5.46,-0.14,-0.04,0.01,-41.84,13.30,-73.3627953.00,-8.34,-1.45,-5.47,-0.16,0.00,-0.00,-42.53,12.27,-74.3528006.00,-7.84,-1.65,-5.90,-0.13,0.01,-0.02,-42.53,12.27,-74.3528056.00,-9.41,-1.41,-4.51,-0.09,0.73,-0.34,-43.05,12.09,-74.8528106.00,-8.76,-1.06,-4.83,-0.40,0.03,-0.14,-43.05,12.09,-74.8528158.00,-8.65,-0.64,-5.07,-0.37,0.05,-0.09,-43.05,12.09,-74.8528209.00,-8.62,-1.12,-5.00,-0.33,-0.00,-0.05,-42.19,10.54,-76.6828259.00,-8.67,-0.96,-4.98,-0.28,-0.03,-0.01,-42.19,10.54,-76.6828311.00,-10.08,0.12,-4.45,-0.70,-0.06,-0.09,-41.50,9.85,-77.6828361.00,-8.78,0.53,-5.49,-1.02,-0.04,0.17,-41.50,9.85,-77.6828411.00,-7.55,-0.56,-7.16,-0.91,0.06,1.08,-41.84,10.54,-76.6828464.00,-8.19,-1.15,-6.23,0.54,0.14,0.62,-41.84,10.54,-76.6828514.00,-9.75,-1.56,-4.15,0.64,-0.20,-0.21,-41.84,10.54,-76.6828564.00,-9.11,-2.39,-4.21,0.11,-0.22,-0.76,-42.53,12.61,-76.3528617.00,-8.68,-1.55,-3.97,-0.94,-0.03,-0.85,-42.53,12.61,-76.3528667.00,-8.61,4.32,-7.37,-1.29,-0.25,-0.53,-42.53,12.61,-76.3528717.00,-12.72,-0.98,-1.16,0.47,-1.10,0.89,-41.67,8.29,-76.8528770.00,-5.50,-3.02,-7.94,0.01,-0.66,0.41,-41.67,8.29,-76.8528820.00,-8.29,-1.02,-5.73,-0.18,0.04,-0.00,-40.47,11.23,-71.6928870.00,-8.02,-0.81,-6.09,-0.14,-0.05,0.10,-40.47,11.23,-71.6928923.00,-7.82,-1.11,-6.26,-0.15,-0.09,0.09,-42.36,11.40,-71.5328973.00,-8.06,-0.86,-6.14,-0.13,-0.01,0.04,-42.36,11.40,-71.5329023.00,-7.85,-1.16,-6.18,-0.14,0.00,0.06,-42.36,11.40,-71.5329076.00,-8.13,-0.91,-5.98,-0.10,0.02,0.06,-40.12,10.89,-71.3629126.00,-7.76,-1.30,-6.23,-0.06,0.01,0.06,-40.12,10.89,-71.3629176.00,-8.26,-0.99,-5.92,-0.07,-0.02,-0.01,-42.36,11.40,-70.8629229.00,-8.02,-1.18,-6.02,-0.09,-0.01,-0.00,-42.36,11.40,-70.8629279.00,-8.12,-1.03,-5.94,-0.13,-0.02,0.01,-42.36,11.40,-70.8629329.00,-7.97,-1.08,-6.12,-0.12,-0.03,0.01,-41.67,12.09,-72.1929381.00,-8.09,-1.14,-5.93,-0.11,-0.01,0.01,-41.67,12.09,-72.1929431.00,-8.07,-1.08,-6.04,-0.13,-0.03,0.02,-41.33,11.06,-71.5329483.00,-8.00,-1.13,-6.04,-0.13,-0.04,0.03,-41.33,11.06,-71.5329533.00,-8.11,-1.03,-5.95,-0.11,-0.02,0.01,-41.33,12.09,-71.5329583.00,-7.94,-1.12,-6.20,-0.09,-0.04,0.00,-41.33,12.09,-71.5329635.00,-8.15,-1.08,-5.89,-0.11,-0.02,0.01,-41.33,12.09,-71.5329685.00,-7.97,-1.18,-6.12,-0.13,-0.03,0.02,-41.50,11.23,-72.0229735.00,-8.11,-1.15,-5.95,-0.12,-0.03,0.01,-41.50,11.23,-72.0229788.00,-8.08,-1.12,-5.97,-0.16,-0.04,0.02,-41.50,11.23,-72.0229838.00,-8.01,-1.18,-6.02,-0.13,-0.05,0.02,-41.50,11.92,-72.3629888.00,-8.04,-1.14,-6.00,-0.13,-0.04,0.02,-41.50,11.92,-72.3629941.00,-8.10,-1.10,-6.01,-0.14,-0.02,0.03,-41.50,11.58,-71.3629991.00,-7.98,-1.18,-6.07,-0.14,-0.04,0.01,-41.50,11.58,-71.3630042.00,-8.01,-1.11,-6.03,-0.13,-0.02,0.01,-41.50,11.58,-71.3630094.00,-8.02,-1.23,-6.00,-0.13,-0.04,0.01,-41.84,13.30,-71.6930145.00,-8.04,-1.08,-6.11,-0.12,-0.02,0.00,-41.84,13.30,-71.6930196.00,-8.03,-1.19,-5.99,-0.12,-0.03,0.02,-41.50,11.92,-71.3630248.00,-8.04,-1.12,-6.03,-0.14,-0.02,0.01,-41.50,11.92,-71.3630299.00,-7.98,-1.20,-6.05,-0.14,-0.03,0.03,-41.50,12.61,-71.0330349.00,-8.09,-1.14,-5.95,-0.14,-0.02,0.02,-41.50,12.61,-71.0330402.00,-8.03,-1.16,-6.05,-0.14,-0.05,0.02,-41.50,12.61,-71.0330452.00,-8.12,-1.07,-6.00,-0.14,-0.02,0.01,-41.67,10.71,-72.5230502.00,-8.07,-1.12,-6.01,-0.14,-0.04,0.02,-41.67,10.71,-72.5230555.00,-8.06,-1.13,-5.99,-0.15,-0.03,0.01,-40.81,11.23,-72.6930605.00,-8.06,-1.13,-5.99,-0.14,-0.05,0.01,-40.81,11.23,-72.6930655.00,-8.05,-1.08,-6.02,-0.15,-0.04,0.00,-40.81,11.23,-72.6930708.00,-8.07,-1.13,-5.98,-0.13,-0.03,0.02,-40.29,11.06,-71.8630758.00,-8.02,-1.06,-6.00,-0.14,-0.02,0.01,-40.29,11.06,-71.8630809.00,-7.99,-1.13,-5.94,-0.15,-0.03,0.03,-42.36,11.40,-71.8630861.00,-8.12,-1.07,-6.00,-0.14,-0.02,0.01,-42.36,11.40,-71.8630911.00,-7.96,-1.18,-6.10,-0.14,-0.03,0.02,-42.02,10.71,-72.8630962.00,-8.13,-1.05,-5.97,-0.13,-0.03,-0.00,-42.02,10.71,-72.8631014.00,-7.97,-1.15,-6.07,-0.14,-0.04,0.01,-42.02,10.71,-72.8631065.00,-8.12,-1.04,-5.99,-0.14,-0.03,0.01,-41.67,11.75,-72.1931115.00,-7.90,-1.09,-6.16,-0.13,-0.05,0.02,-41.67,11.75,-72.1931168.00,-8.13,-1.09,-5.90,-0.14,-0.03,0.02,-41.67,11.75,-72.1931218.00,-8.06,-1.09,-6.01,-0.13,-0.05,0.02,-41.33,11.06,-69.8631268.00,-8.04,-1.11,-6.01,-0.16,-0.06,0.02,-41.33,11.06,-69.8631321.00,-7.97,-1.20,-6.13,-0.30,-0.13,0.07,-40.98,11.06,-72.1931372.00,-8.10,-1.36,-5.70,-0.30,-0.14,0.13,-40.98,11.06,-72.1931422.00,-7.84,-0.83,-6.52,-0.13,-0.12,0.16,-41.67,10.71,-71.8631474.00,-7.75,-1.53,-6.10,0.25,-0.12,0.16,-41.67,10.71,-71.8631525.00,-8.01,-2.25,-4.73,0.38,-0.10,0.27,-41.67,10.71,-71.8631575.00,-7.99,-0.57,-6.46,-1.13,-0.98,-0.83,-40.98,13.82,-69.5331627.00,-7.12,-1.67,-7.26,1.25,-1.00,-0.86,-40.98,13.82,-69.5331677.00,-8.96,-2.42,-6.68,3.92,0.37,-0.34,-38.40,10.54,-66.7031728.00,-4.97,-5.45,-1.79,1.50,-0.40,-1.99,-38.40,10.54,-66.7031778.00,-3.03,5.07,-12.60,-1.92,0.93,-3.57,-38.40,10.54,-66.7031829.00,-5.10,4.69,-1.89,4.26,4.60,-1.83,-37.02,-3.63,-69.3631880.00,-9.06,0.61,-4.26,0.13,0.78,-1.94,-37.02,-3.63,-69.3631931.00,-6.69,0.86,-1.82,-2.70,0.08,-2.14,-37.02,-3.63,-69.3631981.00,-5.70,2.36,-10.19,-0.31,-3.80,-2.17,-34.78,-11.06,-74.5232034.00,-7.48,6.51,-4.11,-7.15,-2.93,-3.88,-34.78,-11.06,-74.5232084.00,-4.80,15.97,-16.85,-8.56,-0.98,-1.84,-22.21,-27.82,-72.3632135.00,-5.31,7.41,-6.34,4.08,0.23,-0.00,-22.21,-27.82,-72.3632187.00,-6.76,2.47,-4.56,3.62,0.03,-0.40,-19.46,-28.51,-67.7032238.00,-3.80,5.72,-7.75,-0.08,-1.13,-1.34,-19.46,-28.51,-67.7032289.00,-4.54,5.40,-6.68,-0.17,-0.56,-1.63,-19.46,-28.51,-67.7032342.00,-2.65,7.93,-8.42,-2.50,-1.17,-2.20,-9.64,-29.72,-62.2132392.00,-1.54,6.72,-3.32,1.14,-1.38,-2.33,-9.64,-29.72,-62.2132443.00,-0.01,1.84,-6.56,1.11,-0.28,0.59,3.62,-25.05,-58.7232496.00,0.71,7.56,-6.57,-0.36,0.64,-0.56,3.62,-25.05,-58.7232547.00,-0.02,7.07,-7.14,0.18,0.13,-0.01,3.62,-25.05,-58.7232598.00,0.15,6.14,-7.89,-0.07,0.10,0.02,4.65,-25.74,-57.7232650.00,-1.47,6.94,-6.79,-0.03,0.30,-0.13,4.65,-25.74,-57.7232701.00,-0.73,6.41,-7.64,-0.10,0.03,0.13,2.24,-25.40,-56.7232751.00,-0.59,6.45,-7.67,-0.14,-0.03,0.02,2.24,-25.40,-56.7232804.00,-0.59,6.46,-7.69,-0.14,-0.03,0.02,1.89,-25.40,-56.0632855.00,-0.58,6.47,-7.67,-0.14,-0.03,0.02,1.89,-25.40,-56.0632905.00,-0.59,6.46,-7.65,-0.14,-0.03,0.02,1.89,-25.40,-56.0632958.00,-0.58,6.45,-7.68,-0.14,-0.03,0.02,2.58,-24.02,-58.0533008.00,-0.59,6.46,-7.69,-0.14,-0.03,0.02,2.58,-24.02,-58.0533059.00,-0.58,6.48,-7.69,-0.14,-0.03,0.02,3.27,-25.74,-57.0533111.00,-0.59,6.46,-7.69,-0.14,-0.03,0.02,3.27,-25.74,-57.0533162.00,-0.64,6.42,-7.71,-0.14,-0.03,0.03,3.27,-25.74,-57.0533212.00,-0.82,6.40,-7.68,-0.20,-0.44,0.50,3.79,-23.84,-57.5533265.00,-0.49,6.28,-7.93,-0.15,-0.06,0.04,3.79,-23.84,-57.5533316.00,-0.05,6.01,-8.09,-0.22,-0.12,-0.15,2.58,-24.36,-57.7233366.00,-0.67,7.90,-6.60,-0.04,0.48,-0.27,2.58,-24.36,-57.7233419.00,-0.60,6.46,-7.67,-0.14,-0.03,0.02,2.58,-24.36,-57.7233470.00,-1.71,5.92,-8.29,-0.15,-0.02,0.00,3.96,-24.02,-56.0633520.00,-0.35,7.15,-7.66,-0.62,0.01,0.09,3.96,-24.02,-56.0633573.00,-1.41,7.09,-6.32,0.15,-0.10,0.34,2.58,-24.36,-56.7233623.00,-0.96,6.46,-7.75,0.09,-0.08,0.14,2.58,-24.36,-56.7233674.00,-0.61,5.86,-8.11,0.11,0.07,-0.05,2.58,-24.36,-56.7233727.00,-0.82,6.35,-7.36,-0.02,-0.03,-0.01,1.89,-22.98,-57.0533777.00,-0.82,6.45,-7.36,-0.20,-0.13,0.07,1.89,-22.98,-57.0533828.00,-0.82,6.18,-7.74,-0.25,-0.30,0.28,3.79,-23.15,-57.2233879.00,-0.53,6.72,-7.85,-0.22,-0.12,0.13,3.79,-23.15,-57.2233930.00,-0.82,6.47,-7.88,-0.06,-0.00,0.04,3.79,-23.15,-57.2233982.00,0.08,6.24,-8.12,-0.05,0.10,-0.13,2.07,-24.19,-55.8934033.00,-1.56,6.02,-7.78,-0.07,0.78,-0.92,2.07,-24.19,-55.8934083.00,-0.95,6.41,-7.83,-0.74,-0.25,0.18,3.27,-24.36,-56.3934135.00,-0.75,6.54,-7.13,-0.22,-0.44,0.35,3.27,-24.36,-56.3934186.00,-1.03,6.67,-7.41,-0.08,0.04,0.11,2.93,-25.74,-57.39