time,ax,ay,az,gx,gy,gz,mx,my,mz2.00,-0.49,6.03,-7.85,-0.03,-0.04,-0.01,11.57,-0.31,-14.9414.00,-0.50,6.11,-7.96,-0.03,-0.04,-0.01,10.12,-0.48,-17.2825.00,-0.50,6.11,-7.96,-0.03,-0.04,-0.01,10.12,-0.48,-17.2885.00,-0.47,6.10,-7.89,-0.03,-0.04,-0.01,10.12,-0.48,-17.2897.00,-0.50,6.14,-7.85,-0.03,-0.04,-0.01,10.12,-0.48,-17.28108.00,-0.50,6.14,-7.85,-0.03,-0.04,-0.01,10.12,-0.48,-17.28120.00,-0.50,6.13,-7.88,-0.02,-0.04,-0.01,10.12,-0.48,-17.28133.00,-0.48,6.06,-7.90,-0.02,-0.04,-0.01,10.12,-0.48,-17.28145.00,-0.48,6.06,-7.90,-0.02,-0.04,-0.01,10.12,-0.48,-17.28157.00,-0.46,5.98,-7.95,-0.02,-0.04,-0.01,10.74,1.73,-15.25169.00,-0.50,6.02,-7.90,-0.03,-0.04,-0.01,10.74,1.73,-15.25181.00,-0.50,6.02,-7.90,-0.03,-0.04,-0.01,10.74,1.73,-15.25194.00,-0.49,6.09,-7.88,-0.03,-0.04,-0.01,10.74,1.73,-15.25205.00,-0.49,6.09,-7.88,-0.03,-0.04,-0.01,10.74,1.73,-15.25217.00,-0.45,6.09,-7.90,-0.03,-0.04,-0.01,10.74,1.73,-15.25229.00,-0.55,5.92,-7.99,-0.02,-0.04,-0.01,10.74,1.73,-15.25242.00,-0.55,5.92,-7.99,-0.02,-0.04,-0.01,10.74,1.73,-15.25252.00,-0.51,6.18,-7.89,-0.07,-0.03,-0.02,10.74,1.73,-15.25264.00,-0.51,6.18,-7.89,-0.07,-0.03,-0.02,10.74,1.73,-15.25276.00,-0.49,6.07,-7.91,-0.03,-0.04,-0.01,12.60,0.88,-16.03289.00,-0.45,6.08,-7.85,-0.02,-0.04,-0.01,12.60,0.88,-16.03300.00,-0.45,6.08,-7.85,-0.02,-0.04,-0.01,12.60,0.88,-16.03312.00,-0.50,6.11,-7.87,-0.02,-0.04,-0.01,12.60,0.88,-16.03324.00,-0.50,6.11,-7.87,-0.02,-0.04,-0.01,12.60,0.88,-16.03337.00,-0.50,6.03,-7.86,-0.01,-0.04,-0.01,12.60,0.88,-16.03349.00,-0.49,6.02,-7.91,-0.02,-0.04,-0.01,12.60,0.88,-16.03361.00,-0.49,6.02,-7.91,-0.02,-0.04,-0.01,12.60,0.88,-16.03372.00,-0.47,6.05,-7.92,-0.02,-0.04,-0.01,12.60,0.88,-16.03385.00,-0.47,6.05,-7.92,-0.02,-0.04,-0.01,12.60,0.88,-16.03397.00,-0.49,6.12,-7.89,-0.03,-0.04,-0.01,11.78,0.54,-15.40408.00,-0.49,6.12,-7.89,-0.03,-0.04,-0.01,11.78,0.54,-15.40419.00,-0.45,5.74,-7.74,-0.04,-0.04,-0.01,11.78,0.54,-15.40430.00,-0.53,6.03,-7.89,-0.14,-0.05,-0.01,11.78,0.54,-15.40443.00,-0.53,6.03,-7.89,-0.14,-0.05,-0.01,11.78,0.54,-15.40455.00,-0.75,6.24,-7.84,0.03,0.12,-0.21,11.78,0.54,-15.40466.00,-0.75,6.24,-7.84,0.03,0.12,-0.21,11.78,0.54,-15.40478.00,-0.01,5.99,-8.10,0.03,0.21,-0.32,11.78,0.54,-15.40491.00,-0.46,6.17,-7.96,-0.00,-0.00,-0.05,11.78,0.54,-15.40502.00,-0.46,6.17,-7.96,-0.00,-0.00,-0.05,11.78,0.54,-15.40514.00,-0.51,6.06,-7.89,-0.00,-0.04,-0.01,11.36,-0.48,-15.40526.00,-0.51,6.06,-7.89,-0.00,-0.04,-0.01,11.36,-0.48,-15.40539.00,-0.49,6.08,-7.89,-0.02,-0.04,-0.01,11.36,-0.48,-15.40551.00,-0.47,6.05,-7.91,-0.02,-0.04,-0.01,11.36,-0.48,-15.40563.00,-0.47,6.05,-7.91,-0.02,-0.04,-0.01,11.36,-0.48,-15.40574.00,-0.47,6.02,-7.94,-0.02,-0.04,-0.01,11.36,-0.48,-15.40587.00,-0.47,6.02,-7.94,-0.02,-0.04,-0.01,11.36,-0.48,-15.40597.00,-0.50,6.05,-7.91,-0.03,-0.04,-0.01,11.36,-0.48,-15.40609.00,-0.47,6.06,-7.91,-0.03,-0.04,-0.01,11.36,-0.48,-15.40621.00,-0.47,6.06,-7.91,-0.03,-0.04,-0.01,11.36,-0.48,-15.40634.00,-0.47,6.09,-7.89,-0.03,-0.04,-0.01,11.36,-0.48,-15.40645.00,-0.47,6.09,-7.89,-0.03,-0.04,-0.01,11.36,-0.48,-15.40657.00,-0.51,6.08,-7.90,-0.03,-0.04,-0.01,12.81,0.71,-16.50669.00,-0.50,6.06,-7.90,-0.02,-0.04,-0.01,12.81,0.71,-16.50682.00,-0.50,6.06,-7.90,-0.02,-0.04,-0.01,12.81,0.71,-16.50694.00,-0.47,6.01,-7.91,-0.01,-0.04,-0.01,12.81,0.71,-16.50706.00,-0.47,6.01,-7.91,-0.01,-0.04,-0.01,12.81,0.71,-16.50716.00,-0.48,6.07,-7.92,-0.03,-0.04,-0.01,12.81,0.71,-16.50728.00,-0.48,6.07,-7.92,-0.03,-0.04,-0.01,12.81,0.71,-16.50742.00,-0.48,6.05,-7.89,-0.03,-0.04,-0.01,12.81,0.71,-16.50754.00,-0.50,6.02,-7.86,-0.03,-0.04,-0.01,12.81,0.71,-16.50766.00,-0.50,6.02,-7.86,-0.03,-0.04,-0.01,12.81,0.71,-16.50778.00,-0.48,6.09,-7.91,-0.04,-0.04,-0.01,12.60,-0.14,-15.72792.00,-0.49,6.10,-7.95,-0.04,-0.04,-0.01,12.60,-0.14,-15.72804.00,-0.49,6.10,-7.95,-0.04,-0.04,-0.01,12.60,-0.14,-15.72816.00,-0.51,5.98,-7.84,-0.04,-0.05,-0.01,12.60,-0.14,-15.72827.00,-0.51,5.98,-7.84,-0.04,-0.05,-0.01,12.60,-0.14,-15.72840.00,-0.61,6.03,-7.91,-0.14,-0.05,-0.01,12.60,-0.14,-15.72852.00,0.03,6.24,-7.77,0.00,0.03,-0.10,12.60,-0.14,-15.72864.00,0.03,6.24,-7.77,0.00,0.03,-0.10,12.60,-0.14,-15.72875.00,-0.73,6.17,-8.15,-0.00,0.02,-0.07,12.60,-0.14,-15.72889.00,-0.39,5.97,-7.79,0.13,0.06,-0.08,11.16,-0.65,-16.19901.00,-0.39,5.97,-7.79,0.13,0.06,-0.08,11.16,-0.65,-16.19913.00,-0.59,6.13,-8.10,0.16,0.10,-0.07,11.16,-0.65,-16.19925.00,-0.59,6.13,-8.10,0.16,0.10,-0.07,11.16,-0.65,-16.19939.00,-0.52,6.39,-8.52,0.45,0.22,-0.08,11.16,-0.65,-16.19951.00,-0.20,6.12,-8.48,0.88,0.30,-0.16,11.16,-0.65,-16.19963.00,-0.20,6.12,-8.48,0.88,0.30,-0.16,11.16,-0.65,-16.19974.00,-0.49,5.41,-8.02,0.92,0.22,-0.19,11.16,-0.65,-16.19986.00,-0.49,5.41,-8.02,0.92,0.22,-0.19,11.16,-0.65,-16.19999.00,-2.36,5.89,-10.61,1.00,0.26,-0.09,11.16,-0.65,-16.191011.00,-1.72,7.42,-10.06,2.62,0.42,-0.15,13.84,-4.57,-14.781023.00,-1.72,7.42,-10.06,2.62,0.42,-0.15,13.84,-4.57,-14.781035.00,0.78,6.73,-10.51,4.12,0.76,-0.67,13.84,-4.57,-14.781048.00,0.78,6.73,-10.51,4.12,0.76,-0.67,13.84,-4.57,-14.781060.00,0.35,2.16,-12.12,4.84,0.39,-1.23,13.84,-4.57,-14.781071.00,-1.18,0.23,-13.97,4.51,-0.43,-0.97,13.84,-4.57,-14.781083.00,-1.18,0.23,-13.97,4.51,-0.43,-0.97,13.84,-4.57,-14.781096.00,-1.04,0.75,-15.73,3.66,-1.06,-0.60,13.84,-4.57,-14.781108.00,-1.04,0.75,-15.73,3.66,-1.06,-0.60,13.84,-4.57,-14.781120.00,-0.17,1.75,-13.45,3.08,-1.90,-0.46,13.84,-4.57,-14.781130.00,-1.12,3.91,-10.26,2.67,-2.81,-0.51,13.84,-4.57,-14.781144.00,-1.12,3.91,-10.26,2.67,-2.81,-0.51,13.84,-4.57,-14.781156.00,-3.46,6.67,-12.35,2.70,-3.34,-1.14,10.74,-21.40,-15.251168.00,-3.46,6.67,-12.35,2.70,-3.34,-1.14,10.74,-21.40,-15.251179.00,-1.48,6.91,-16.79,4.46,-3.97,-2.47,10.74,-21.40,-15.251193.00,2.27,2.04,-12.63,6.96,-5.45,-3.68,10.74,-21.40,-15.251205.00,2.27,2.04,-12.63,6.96,-5.45,-3.68,10.74,-21.40,-15.251217.00,1.82,-3.16,-5.60,6.96,-6.70,-3.82,10.74,-21.40,-15.251229.00,-1.29,-3.76,-5.26,4.02,-7.02,-3.34,10.74,-21.40,-15.251243.00,-1.29,-3.76,-5.26,4.02,-7.02,-3.34,10.74,-21.40,-15.251254.00,1.12,-3.83,-6.14,0.78,-7.38,-3.31,10.74,-21.40,-15.251265.00,1.12,-3.83,-6.14,0.78,-7.38,-3.31,10.74,-21.40,-15.251276.00,-0.69,-4.32,-4.27,-1.49,-7.88,-3.86,-4.75,-32.80,-5.401290.00,-0.44,-10.57,-1.83,-2.54,-7.87,-4.56,-4.75,-32.80,-5.401302.00,-0.44,-10.57,-1.83,-2.54,-7.87,-4.56,-4.75,-32.80,-5.401312.00,-3.36,-9.26,6.51,-2.29,-6.41,-3.59,-4.75,-32.80,-5.401324.00,-3.36,-9.26,6.51,-2.29,-6.41,-3.59,-4.75,-32.80,-5.401337.00,-2.84,-6.07,3.23,-4.52,-4.41,-3.10,-4.75,-32.80,-5.401348.00,-2.84,-6.07,3.23,-4.52,-4.41,-3.10,-4.75,-32.80,-5.401360.00,-3.15,-12.12,7.40,-1.17,-2.03,-2.44,-4.75,-32.80,-5.401371.00,-4.43,-8.04,-1.66,-0.45,0.61,-0.67,-4.75,-32.80,-5.401385.00,-4.43,-8.04,-1.66,-0.45,0.61,-0.67,-4.75,-32.80,-5.401397.00,-4.75,-2.38,-7.89,-0.04,1.19,-0.21,-5.99,-29.40,-9.461408.00,-4.75,-2.38,-7.89,-0.04,1.19,-0.21,-5.99,-29.40,-9.461418.00,-4.12,-7.82,-5.34,0.43,-0.00,-0.71,-5.99,-29.40,-9.461432.00,-2.48,-5.56,-4.58,0.07,-0.70,-0.41,-5.99,-29.40,-9.461444.00,-2.48,-5.56,-4.58,0.07,-0.70,-0.41,-5.99,-29.40,-9.461455.00,-5.85,-5.07,-6.50,1.56,-1.04,-0.47,-5.99,-29.40,-9.461466.00,-5.85,-5.07,-6.50,1.56,-1.04,-0.47,-5.99,-29.40,-9.461480.00,-4.82,-6.47,-2.89,1.52,-2.04,-0.67,-5.99,-29.40,-9.461491.00,-4.71,-7.99,1.46,0.67,-1.92,-0.62,-5.99,-29.40,-9.461502.00,-4.71,-7.99,1.46,0.67,-1.92,-0.62,-5.99,-29.40,-9.461513.00,-6.46,-9.23,0.35,0.78,-0.40,0.25,-5.99,-32.12,-5.091526.00,-6.46,-9.23,0.35,0.78,-0.40,0.25,-5.99,-32.12,-5.091538.00,-8.53,-4.98,-5.14,-0.71,0.28,1.13,-5.99,-32.12,-5.091550.00,-9.86,-4.94,-3.97,-0.63,0.23,1.13,-5.99,-32.12,-5.091561.00,-9.86,-4.94,-3.97,-0.63,0.23,1.13,-5.99,-32.12,-5.091572.00,-11.54,-3.15,-5.51,0.92,0.39,0.82,-5.99,-32.12,-5.091586.00,-11.54,-3.15,-5.51,0.92,0.39,0.82,-5.99,-32.12,-5.091598.00,-9.53,-8.43,-4.60,2.52,-0.05,0.11,-5.99,-32.12,-5.091609.00,-9.53,-8.43,-4.60,2.52,-0.05,0.11,-5.99,-32.12,-5.091619.00,-6.93,-10.36,-0.82,1.70,-0.57,0.29,-5.99,-32.12,-5.091633.00,-7.32,-7.18,-0.38,-0.03,-0.33,0.79,-5.99,-32.12,-5.091645.00,-7.32,-7.18,-0.38,-0.03,-0.33,0.79,-5.99,-32.12,-5.091656.00,-7.72,-5.21,-3.17,-0.19,0.07,0.91,-9.50,-33.65,-3.991668.00,-7.72,-5.21,-3.17,-0.19,0.07,0.91,-9.50,-33.65,-3.991681.00,-6.36,-4.44,-3.63,2.12,0.21,0.93,-9.50,-33.65,-3.991693.00,-7.53,-7.01,-2.15,3.28,0.15,0.92,-9.50,-33.65,-3.991705.00,-7.53,-7.01,-2.15,3.28,0.15,0.92,-9.50,-33.65,-3.991716.00,-6.39,-6.63,-1.77,1.69,-0.10,0.89,-9.50,-33.65,-3.991729.00,-6.39,-6.63,-1.77,1.69,-0.10,0.89,-9.50,-33.65,-3.991739.00,-6.30,-5.83,-1.78,0.73,-0.27,0.91,-9.50,-33.65,-3.991751.00,-7.48,-6.94,-1.11,-0.17,-0.33,0.78,-9.50,-33.65,-3.991763.00,-7.48,-6.94,-1.11,-0.17,-0.33,0.78,-9.50,-33.65,-3.991776.00,-7.75,-6.54,-0.68,-1.21,-0.27,0.89,-11.36,-34.50,0.541788.00,-7.75,-6.54,-0.68,-1.21,-0.27,0.89,-11.36,-34.50,0.541801.00,-7.42,-6.94,0.10,-3.24,-0.41,1.04,-11.36,-34.50,0.541813.00,-8.81,-4.98,0.36,-5.93,-0.59,0.99,-11.36,-34.50,0.541826.00,-8.81,-4.98,0.36,-5.93,-0.59,0.99,-11.36,-34.50,0.541837.00,-8.04,-4.18,0.55,-6.89,-0.25,0.77,-11.36,-34.50,0.541849.00,-8.04,-4.18,0.55,-6.89,-0.25,0.77,-11.36,-34.50,0.541861.00,-9.28,-3.67,-1.98,-6.46,0.16,0.78,-11.36,-34.50,0.541874.00,-8.44,-3.09,-3.11,-5.37,0.46,0.64,-11.36,-34.50,0.541885.00,-8.44,-3.09,-3.11,-5.37,0.46,0.64,-11.36,-34.50,0.541897.00,-7.21,-4.86,-3.22,-4.13,0.69,0.60,-16.73,-16.13,-13.841909.00,-7.21,-4.86,-3.22,-4.13,0.69,0.60,-16.73,-16.13,-13.841921.00,-6.89,-4.96,-3.95,-3.55,0.81,1.09,-16.73,-16.13,-13.841933.00,-7.64,-1.58,-4.69,-3.56,0.79,1.53,-16.73,-16.13,-13.841945.00,-7.64,-1.58,-4.69,-3.56,0.79,1.53,-16.73,-16.13,-13.841957.00,-8.32,1.13,-6.51,-3.27,0.71,1.26,-16.73,-16.13,-13.841970.00,-8.58,4.87,-10.60,-1.16,0.54,0.46,-16.73,-16.13,-13.841981.00,-8.58,4.87,-10.60,-1.16,0.54,0.46,-16.73,-16.13,-13.841992.00,-9.79,1.89,-7.12,2.11,0.27,-0.82,-16.73,-16.13,-13.842004.00,-9.79,1.89,-7.12,2.11,0.27,-0.82,-16.73,-16.13,-13.842008.00,-9.79,1.89,-7.12,2.11,0.27,-0.82,-16.73,-16.13,-13.842085.00,-7.22,-5.68,-5.27,0.49,-0.17,-1.11,-15.90,-11.37,-15.092165.00,-7.08,-0.29,5.04,-6.41,-0.80,0.91,-16.73,-6.27,-17.282242.00,-6.82,8.23,-7.73,-3.81,-0.50,0.72,-16.73,-6.27,-17.282332.00,-8.02,1.67,-4.19,-1.34,-0.00,-0.01,-19.00,24.18,-4.312344.00,-8.02,1.67,-4.19,-1.34,-0.00,-0.01,-19.00,24.18,-4.312356.00,-7.92,3.27,-6.33,-2.12,-0.01,0.19,-19.00,24.18,-4.312367.00,-7.92,3.27,-6.33,-2.12,-0.01,0.19,-19.00,24.18,-4.312379.00,-7.87,3.11,-5.10,-1.33,-0.02,0.23,-19.00,24.18,-4.312392.00,-7.76,3.79,-5.07,-1.17,0.01,0.32,-18.18,22.48,-3.992403.00,-7.76,3.79,-5.07,-1.17,0.01,0.32,-18.18,22.48,-3.992415.00,-7.86,2.39,-5.40,-0.89,0.01,0.46,-18.18,22.48,-3.992427.00,-7.86,2.39,-5.40,-0.89,0.01,0.46,-18.18,22.48,-3.992440.00,-8.38,3.19,-4.65,-1.16,-0.15,0.64,-18.18,22.48,-3.992451.00,-7.93,3.56,-4.73,-1.24,-0.16,0.60,-18.18,22.48,-3.992462.00,-7.93,3.56,-4.73,-1.24,-0.16,0.60,-18.18,22.48,-3.992474.00,-8.20,4.56,-5.44,-1.01,-0.09,0.58,-18.18,22.48,-3.992487.00,-8.20,4.56,-5.44,-1.01,-0.09,0.58,-18.18,22.48,-3.992498.00,-8.53,5.77,-4.82,0.07,0.02,0.62,-18.18,22.48,-3.992508.00,-8.53,5.77,-4.82,0.07,0.02,0.62,-18.18,22.48,-3.992520.00,-10.05,5.21,-3.99,1.59,0.33,0.20,-18.18,25.54,-1.802534.00,-8.22,3.25,-4.13,2.04,0.71,-0.13,-18.18,25.54,-1.802547.00,-8.22,3.25,-4.13,2.04,0.71,-0.13,-18.18,25.54,-1.802559.00,-7.87,1.53,-5.14,0.91,0.73,-0.15,-18.18,25.54,-1.802571.00,-6.77,1.54,-5.45,-0.79,0.56,-0.15,-18.18,25.54,-1.802584.00,-6.77,1.54,-5.45,-0.79,0.56,-0.15,-18.18,25.54,-1.802596.00,-6.81,3.32,-5.86,-2.26,0.20,0.11,-18.18,25.54,-1.802608.00,-6.81,3.32,-5.86,-2.26,0.20,0.11,-18.18,25.54,-1.802619.00,-7.94,8.71,-7.20,-1.21,-0.45,0.27,-18.18,25.54,-1.802633.00,-7.71,3.49,-1.81,1.28,-0.67,-0.11,-18.38,24.01,-2.272645.00,-7.71,3.49,-1.81,1.28,-0.67,-0.11,-18.38,24.01,-2.272656.00,-6.08,1.86,-6.14,-1.01,-0.29,-0.14,-18.38,24.01,-2.272668.00,-6.08,1.86,-6.14,-1.01,-0.29,-0.14,-18.38,24.01,-2.272682.00,-7.40,4.27,-6.08,-2.81,-0.65,0.04,-18.38,24.01,-2.272694.00,-9.13,4.99,-3.36,-2.68,-0.76,0.02,-18.38,24.01,-2.272706.00,-9.13,4.99,-3.36,-2.68,-0.76,0.02,-18.38,24.01,-2.272718.00,-8.69,4.19,-2.38,-2.69,-0.38,0.07,-18.38,24.01,-2.272729.00,-8.69,4.19,-2.38,-2.69,-0.38,0.07,-18.38,24.01,-2.272742.00,-7.71,5.32,-4.56,-3.59,-0.28,0.12,-18.38,24.01,-2.272754.00,-7.01,6.08,-2.72,-3.60,-0.53,0.04,-18.38,24.01,-2.272766.00,-7.01,6.08,-2.72,-3.60,-0.53,0.04,-18.38,24.01,-2.272777.00,-7.46,7.68,-1.48,-1.24,-0.09,-0.27,-17.76,26.22,7.262791.00,-7.11,4.31,-3.19,1.66,0.68,-0.59,-17.76,26.22,7.262802.00,-7.11,4.31,-3.19,1.66,0.68,-0.59,-17.76,26.22,7.262813.00,-8.84,3.19,-5.44,2.33,0.71,-0.39,-17.76,26.22,7.262825.00,-8.84,3.19,-5.44,2.33,0.71,-0.39,-17.76,26.22,7.262839.00,-8.72,3.46,-4.22,1.85,0.30,-0.11,-17.76,26.22,7.262852.00,-7.93,4.90,-4.23,1.72,0.22,-0.04,-17.76,26.22,7.262864.00,-7.93,4.90,-4.23,1.72,0.22,-0.04,-17.76,26.22,7.262876.00,-7.27,4.45,-5.03,1.81,0.15,-0.15,-17.76,26.22,7.262888.00,-7.27,4.45,-5.03,1.81,0.15,-0.15,-17.76,26.22,7.262900.00,-8.38,3.62,-4.58,1.53,-0.07,-0.09,-18.80,26.05,0.232912.00,-7.76,2.73,-4.80,-0.67,-0.31,-0.24,-18.80,26.05,0.232923.00,-7.76,2.73,-4.80,-0.67,-0.31,-0.24,-18.80,26.05,0.232936.00,-7.33,4.16,-4.95,-0.17,-0.22,0.06,-18.80,26.05,0.232948.00,-7.33,4.16,-4.95,-0.17,-0.22,0.06,-18.80,26.05,0.232959.00,-8.05,4.87,-3.46,-0.29,-0.23,0.03,-18.80,26.05,0.232970.00,-7.83,4.89,-3.74,-0.63,-0.07,-0.05,-18.80,26.05,0.232982.00,-7.83,4.89,-3.74,-0.63,-0.07,-0.05,-18.80,26.05,0.232996.00,-7.94,3.60,-4.69,-0.49,0.01,-0.08,-18.80,26.05,0.233008.00,-7.94,3.60,-4.69,-0.49,0.01,-0.08,-18.80,26.05,0.233020.00,-8.20,3.55,-4.37,-0.68,-0.09,0.01,-18.80,26.73,2.733032.00,-8.16,4.69,-4.22,-0.98,-0.15,0.11,-18.80,26.73,2.733045.00,-8.16,4.69,-4.22,-0.98,-0.15,0.11,-18.80,26.73,2.733056.00,-8.28,5.13,-3.77,-0.68,-0.13,0.07,-18.80,26.73,2.733068.00,-8.28,5.13,-3.77,-0.68,-0.13,0.07,-18.80,26.73,2.733080.00,-7.96,5.04,-3.93,-0.25,-0.03,-0.02,-18.80,26.73,2.733093.00,-7.63,4.71,-4.11,-0.03,0.01,-0.11,-18.80,26.73,2.733104.00,-7.63,4.71,-4.11,-0.03,0.01,-0.11,-18.80,26.73,2.733116.00,-7.94,4.05,-4.31,0.01,-0.04,-0.10,-18.80,26.73,2.733128.00,-7.94,4.05,-4.31,0.01,-0.04,-0.10,-18.80,26.73,2.733141.00,-8.41,3.71,-3.63,-0.04,-0.09,-0.05,-18.80,28.43,3.673152.00,-8.10,4.29,-4.08,-0.12,-0.01,0.03,-18.80,28.43,3.673163.00,-8.10,4.29,-4.08,-0.12,-0.01,0.03,-18.80,28.43,3.673175.00,-7.63,4.87,-4.37,-0.15,0.04,0.06,-18.80,28.43,3.673188.00,-7.63,4.87,-4.37,-0.15,0.04,0.06,-18.80,28.43,3.673200.00,-7.68,5.01,-4.02,-0.15,-0.01,0.01,-18.80,28.43,3.673211.00,-7.98,4.49,-3.79,-0.09,-0.02,-0.03,-18.80,28.43,3.673223.00,-7.98,4.49,-3.79,-0.09,-0.02,-0.03,-18.80,28.43,3.673235.00,-8.27,4.28,-3.87,-0.11,-0.02,-0.01,-18.80,28.43,3.673247.00,-8.27,4.28,-3.87,-0.11,-0.02,-0.01,-18.80,28.43,3.673259.00,-8.22,4.22,-3.76,-0.12,0.01,0.04,-18.80,28.43,3.673270.00,-8.22,4.22,-3.76,-0.12,0.01,0.04,-18.80,28.43,3.673281.00,-7.84,4.62,-3.95,-0.17,0.08,0.14,-19.00,27.92,3.203294.00,-7.52,4.92,-4.27,-0.21,0.13,0.17,-19.00,27.92,3.203304.00,-7.52,4.92,-4.27,-0.21,0.13,0.17,-19.00,27.92,3.203316.00,-7.41,4.93,-4.31,-0.22,0.08,0.06,-19.00,27.92,3.203327.00,-7.41,4.93,-4.31,-0.22,0.08,0.06,-19.00,27.92,3.203341.00,-7.62,4.70,-4.18,-0.17,0.03,-0.02,-19.00,27.92,3.203353.00,-8.21,4.52,-4.07,-0.06,0.00,-0.08,-19.00,27.92,3.203365.00,-8.21,4.52,-4.07,-0.06,0.00,-0.08,-19.00,27.92,3.203376.00,-8.21,4.31,-3.89,0.02,-0.02,-0.08,-19.00,27.92,3.203390.00,-8.21,4.31,-3.89,0.02,-0.02,-0.08,-19.00,27.92,3.203401.00,-7.55,5.03,-3.96,0.05,-0.02,-0.01,-17.76,26.90,3.513413.00,-7.58,5.02,-3.83,0.32,0.01,-0.02,-17.76,26.90,3.513425.00,-7.58,5.02,-3.83,0.32,0.01,-0.02,-17.76,26.90,3.513438.00,-7.98,4.19,-4.12,0.50,0.12,-0.07,-17.76,26.90,3.513450.00,-7.87,4.14,-5.04,0.12,0.08,0.00,-17.76,26.90,3.513462.00,-7.87,4.14,-5.04,0.12,0.08,0.00,-17.76,26.90,3.513474.00,-7.79,4.60,-4.31,-0.35,-0.19,0.06,-17.76,26.90,3.513486.00,-7.79,4.60,-4.31,-0.35,-0.19,0.06,-17.76,26.90,3.513500.00,-8.15,4.95,-3.55,-0.33,-0.27,0.04,-17.76,26.90,3.513511.00,-8.28,4.76,-3.54,-0.11,-0.12,0.04,-19.00,27.92,4.453523.00,-8.28,4.76,-3.54,-0.11,-0.12,0.04,-19.00,27.92,4.453535.00,-8.05,4.46,-3.82,0.06,0.07,0.12,-19.00,27.92,4.453548.00,-8.05,4.46,-3.82,0.06,0.07,0.12,-19.00,27.92,4.453560.00,-7.40,4.90,-4.54,0.04,0.16,0.18,-19.00,27.92,4.453571.00,-7.68,4.39,-4.17,0.14,0.08,0.07,-19.00,27.92,4.453583.00,-7.68,4.39,-4.17,0.14,0.08,0.07,-19.00,27.92,4.453596.00,-7.77,4.67,-4.38,0.05,0.05,-0.02,-19.00,27.92,4.453607.00,-7.77,4.67,-4.38,0.05,0.05,-0.02,-19.00,27.92,4.453619.00,-7.40,5.18,-4.41,-0.04,-0.04,-0.06,-19.00,27.92,4.453631.00,-8.46,4.59,-3.77,0.24,-0.06,-0.13,-18.18,25.20,3.203644.00,-8.46,4.59,-3.77,0.24,-0.06,-0.13,-18.18,25.20,3.203655.00,-7.99,3.66,-4.30,0.23,0.06,-0.05,-18.18,25.20,3.203667.00,-7.99,3.66,-4.30,0.23,0.06,-0.05,-18.18,25.20,3.203679.00,-7.88,3.72,-5.07,-0.16,-0.07,0.12,-18.18,25.20,3.203691.00,-8.02,4.41,-3.86,-0.56,-0.25,0.22,-18.18,25.20,3.203704.00,-8.02,4.41,-3.86,-0.56,-0.25,0.22,-18.18,25.20,3.203716.00,-8.07,4.68,-4.15,-0.66,-0.26,0.24,-18.18,25.20,3.203727.00,-8.07,4.68,-4.15,-0.66,-0.26,0.24,-18.18,25.20,3.203737.00,-8.88,4.55,-3.73,-1.05,-0.45,0.23,-18.18,25.20,3.203751.00,-8.83,4.67,-2.82,-1.27,-0.39,0.27,-18.18,25.20,3.203763.00,-8.83,4.67,-2.82,-1.27,-0.39,0.27,-18.18,25.20,3.203774.00,-6.71,5.74,-3.74,-0.96,-0.04,0.32,-17.56,28.77,5.863786.00,-6.71,5.74,-3.74,-0.96,-0.04,0.32,-17.56,28.77,5.863800.00,-6.29,6.65,-4.07,-0.52,-0.08,0.09,-17.56,28.77,5.863811.00,-7.51,5.68,-3.69,-0.06,-0.22,-0.15,-17.56,28.77,5.863822.00,-7.51,5.68,-3.69,-0.06,-0.22,-0.15,-17.56,28.77,5.863834.00,-7.93,4.88,-3.59,0.21,-0.23,-0.21,-17.56,28.77,5.863846.00,-7.93,4.88,-3.59,0.21,-0.23,-0.21,-17.56,28.77,5.863858.00,-8.44,4.67,-3.24,0.27,-0.22,-0.17,-17.56,28.77,5.863870.00,-8.44,4.67,-3.24,0.27,-0.22,-0.17,-17.56,28.77,5.863881.00,-8.12,4.68,-3.49,0.20,-0.15,-0.05,-17.56,28.77,5.863895.00,-7.76,5.22,-3.63,0.09,-0.16,0.02,-18.59,26.90,5.703907.00,-7.76,5.22,-3.63,0.09,-0.16,0.02,-18.59,26.90,5.703919.00,-7.83,5.36,-3.45,0.10,-0.19,-0.02,-18.59,26.90,5.703931.00,-7.91,4.87,-3.48,0.17,-0.15,-0.03,-18.59,26.90,5.703943.00,-7.91,4.87,-3.48,0.17,-0.15,-0.03,-18.59,26.90,5.703957.00,-7.99,4.93,-3.43,0.12,-0.13,-0.01,-18.59,26.90,5.703969.00,-7.99,4.93,-3.43,0.12,-0.13,-0.01,-18.59,26.90,5.703980.00,-7.90,5.17,-3.50,0.11,-0.11,-0.01,-18.59,26.90,5.703992.00,-7.93,5.23,-3.49,0.07,-0.08,-0.04,-18.59,26.90,5.704005.00,-7.93,5.23,-3.49,0.07,-0.08,-0.04,-18.59,26.90,5.704016.00,-7.95,4.89,-3.70,0.00,-0.06,-0.08,-17.76,27.24,5.704027.00,-7.95,4.89,-3.70,0.00,-0.06,-0.08,-17.76,27.24,5.704039.00,-7.92,4.80,-3.60,0.03,-0.07,-0.07,-17.76,27.24,5.704052.00,-7.95,4.83,-3.48,0.06,-0.10,-0.04,-17.76,27.24,5.704064.00,-7.95,4.83,-3.48,0.06,-0.10,-0.04,-17.76,27.24,5.704076.00,-7.93,4.75,-3.72,0.08,-0.10,-0.01,-17.76,27.24,5.704087.00,-7.93,4.75,-3.72,0.08,-0.10,-0.01,-17.76,27.24,5.704101.00,-7.88,4.64,-3.74,-0.02,-0.13,0.02,-17.76,27.24,5.704111.00,-7.93,4.94,-3.71,-0.10,-0.18,0.07,-17.76,27.24,5.704123.00,-7.93,4.94,-3.71,-0.10,-0.18,0.07,-17.76,27.24,5.704135.00,-7.95,4.97,-3.69,-0.04,-0.21,0.10,-18.38,27.07,7.114147.00,-7.95,4.97,-3.69,-0.04,-0.21,0.10,-18.38,27.07,7.114159.00,-7.96,5.09,-3.44,-0.05,-0.25,0.09,-18.38,27.07,7.114171.00,-8.01,5.28,-2.99,-0.09,-0.25,0.07,-18.38,27.07,7.114182.00,-8.01,5.28,-2.99,-0.09,-0.25,0.07,-18.38,27.07,7.114194.00,-8.05,5.61,-2.63,-0.02,-0.17,0.03,-18.38,27.07,7.114207.00,-8.05,5.61,-2.63,-0.02,-0.17,0.03,-18.38,27.07,7.114219.00,-8.03,5.39,-2.95,0.10,-0.05,-0.05,-18.38,27.07,7.114232.00,-8.03,5.32,-3.10,0.17,0.03,-0.11,-18.38,27.07,7.114244.00,-8.03,5.32,-3.10,0.17,0.03,-0.11,-18.38,27.07,7.114257.00,-7.93,4.49,-3.86,0.24,0.07,-0.14,-18.38,27.07,7.114268.00,-7.93,4.49,-3.86,0.24,0.07,-0.14,-18.38,27.07,7.114280.00,-7.99,4.77,-3.81,0.15,0.01,-0.09,-18.59,27.92,6.014292.00,-7.99,4.78,-3.51,0.03,-0.06,-0.07,-18.59,27.92,6.014305.00,-7.99,4.78,-3.51,0.03,-0.06,-0.07,-18.59,27.92,6.014317.00,-8.05,4.96,-3.09,-0.06,-0.08,-0.05,-18.59,27.92,6.014329.00,-8.05,4.96,-3.09,-0.06,-0.08,-0.05,-18.59,27.92,6.014340.00,-8.01,5.08,-3.22,-0.01,-0.02,-0.06,-18.59,27.92,6.014353.00,-7.98,4.89,-3.46,0.09,0.03,-0.09,-18.59,27.92,6.014365.00,-7.98,4.89,-3.46,0.09,0.03,-0.09,-18.59,27.92,6.014376.00,-7.96,4.58,-3.89,0.10,0.03,-0.08,-18.59,27.92,6.014388.00,-7.96,4.58,-3.89,0.10,0.03,-0.08,-18.59,27.92,6.014400.00,-8.03,4.71,-3.67,-0.05,-0.04,-0.05,-16.73,27.75,5.544412.00,-8.03,4.75,-3.42,-0.09,-0.08,-0.03,-16.73,27.75,5.544424.00,-8.03,4.75,-3.42,-0.09,-0.08,-0.03,-16.73,27.75,5.544436.00,-8.04,4.90,-3.39,-0.07,-0.07,-0.01,-16.73,27.75,5.544447.00,-8.04,4.90,-3.39,-0.07,-0.07,-0.01,-16.73,27.75,5.544461.00,-8.02,4.88,-3.58,-0.03,-0.05,-0.02,-16.73,27.75,5.544472.00,-8.03,4.79,-3.59,-0.04,-0.06,-0.03,-16.73,27.75,5.544483.00,-8.03,4.79,-3.59,-0.04,-0.06,-0.03,-16.73,27.75,5.544495.00,-8.04,4.91,-3.44,-0.04,-0.08,-0.02,-16.73,27.75,5.544508.00,-8.04,4.91,-3.44,-0.04,-0.08,-0.02,-16.73,27.75,5.544519.00,-8.06,4.74,-3.47,-0.03,-0.07,-0.02,-19.83,25.88,4.454530.00,-8.06,4.74,-3.47,-0.03,-0.07,-0.02,-19.83,25.88,4.454541.00,-8.08,5.02,-3.41,-0.05,-0.07,-0.02,-19.83,25.88,4.454554.00,-8.07,4.82,-3.32,-0.06,-0.07,-0.03,-19.83,25.88,4.454566.00,-8.07,4.82,-3.32,-0.06,-0.07,-0.03,-19.83,25.88,4.454578.00,-8.07,4.77,-3.34,-0.00,-0.05,-0.03,-19.83,25.88,4.454589.00,-8.07,4.77,-3.34,-0.00,-0.05,-0.03,-19.83,25.88,4.454594.00,-8.04,4.81,-3.50,0.06,-0.03,-0.02,-19.83,25.88,4.454672.00,-7.19,5.31,-3.02,0.47,0.20,-0.10,-18.38,25.71,5.544749.00,-8.88,4.42,-3.94,0.41,0.09,0.14,-18.38,25.71,5.544828.00,-7.93,4.01,-3.64,-0.49,-0.91,0.15,-18.80,26.05,3.984917.00,-6.61,6.19,-2.23,-0.36,0.52,-0.32,-18.80,27.75,5.864929.00,-6.61,6.19,-2.23,-0.36,0.52,-0.32,-18.80,27.75,5.864941.00,-7.02,6.12,-2.87,0.06,0.79,-0.26,-18.80,27.75,5.864954.00,-7.64,5.79,-3.37,0.75,0.81,-0.19,-18.80,27.75,5.864968.00,-7.64,5.79,-3.37,0.75,0.81,-0.19,-18.80,27.75,5.864980.00,-8.34,3.71,-4.60,1.18,0.54,-0.08,-18.80,27.75,5.864991.00,-9.25,3.51,-4.11,0.81,0.06,0.16,-18.80,27.75,5.865003.00,-9.25,3.51,-4.11,0.81,0.06,0.16,-18.80,27.75,5.865015.00,-8.72,2.47,-4.83,0.31,-0.11,0.25,-18.18,27.58,3.825028.00,-8.72,2.47,-4.83,0.31,-0.11,0.25,-18.18,27.58,3.825040.00,-8.80,4.88,-2.88,-0.55,-0.39,0.39,-18.18,27.58,3.825052.00,-8.78,4.32,-3.46,-0.87,-0.37,0.30,-18.18,27.58,3.825063.00,-8.78,4.32,-3.46,-0.87,-0.37,0.30,-18.18,27.58,3.825077.00,-8.48,4.49,-3.04,-0.90,-0.12,0.42,-18.18,27.58,3.825089.00,-8.48,4.49,-3.04,-0.90,-0.12,0.42,-18.18,27.58,3.825101.00,-7.55,6.36,-3.02,-0.82,0.17,0.46,-18.18,27.58,3.825112.00,-6.67,6.85,-3.48,-0.38,0.35,0.23,-18.18,27.58,3.825126.00,-6.67,6.85,-3.48,-0.38,0.35,0.23,-18.18,27.58,3.825136.00,-6.53,5.88,-3.93,0.05,0.28,0.07,-18.38,28.43,6.485148.00,-6.53,5.88,-3.93,0.05,0.28,0.07,-18.38,28.43,6.485160.00,-7.31,5.29,-3.66,0.20,0.10,-0.04,-18.38,28.43,6.485173.00,-7.60,5.12,-3.89,0.16,-0.03,-0.13,-18.38,28.43,6.485184.00,-7.60,5.12,-3.89,0.16,-0.03,-0.13,-18.38,28.43,6.485196.00,-7.66,5.42,-3.62,0.12,-0.10,-0.23,-18.38,28.43,6.485208.00,-7.66,5.42,-3.62,0.12,-0.10,-0.23,-18.38,28.43,6.485219.00,-7.85,5.65,-3.58,0.17,-0.10,-0.43,-18.38,28.43,6.485233.00,-8.95,3.54,-3.77,0.18,-0.11,-0.43,-18.38,28.43,6.485245.00,-8.95,3.54,-3.77,0.18,-0.11,-0.43,-18.38,28.43,6.485257.00,-8.54,4.78,-2.86,-0.20,-0.15,-0.09,-18.38,28.43,6.485268.00,-8.54,4.78,-2.86,-0.20,-0.15,-0.09,-18.38,28.43,6.485282.00,-8.28,4.53,-3.64,-0.01,-0.13,-0.01,-18.38,28.43,6.485294.00,-8.45,4.85,-3.34,-0.02,-0.23,0.04,-18.38,28.43,6.485305.00,-8.45,4.85,-3.34,-0.02,-0.23,0.04,-18.38,28.43,6.485317.00,-9.06,4.47,-2.90,-0.13,-0.24,0.08,-18.38,28.43,6.485330.00,-9.06,4.47,-2.90,-0.13,-0.24,0.08,-18.38,28.43,6.485340.00,-9.17,4.37,-2.77,-0.16,-0.05,0.37,-18.38,28.43,6.485352.00,-7.53,5.07,-3.41,-0.15,0.14,0.66,-18.38,28.43,6.485364.00,-7.53,5.07,-3.41,-0.15,0.14,0.66,-18.38,28.43,6.485377.00,-6.35,6.55,-3.68,-0.18,0.12,0.53,-18.38,28.43,6.485388.00,-6.35,6.55,-3.68,-0.18,0.12,0.53,-18.38,28.43,6.485400.00,-6.17,6.47,-4.15,0.03,0.05,0.17,-16.94,28.26,5.395411.00,-6.17,6.47,-4.15,0.03,0.05,0.17,-16.94,28.26,5.395422.00,-6.79,5.76,-4.23,0.18,-0.08,-0.09,-16.94,28.26,5.395435.00,-7.81,5.06,-3.63,0.18,-0.21,-0.22,-16.94,28.26,5.395447.00,-7.81,5.06,-3.63,0.18,-0.21,-0.22,-16.94,28.26,5.395458.00,-8.15,4.88,-3.24,0.12,-0.22,-0.18,-16.94,28.26,5.395470.00,-8.15,4.88,-3.24,0.12,-0.22,-0.18,-16.94,28.26,5.395483.00,-7.90,5.07,-3.29,0.07,-0.16,-0.12,-16.94,28.26,5.395494.00,-7.60,5.40,-3.36,0.05,-0.11,-0.14,-16.94,28.26,5.395506.00,-7.60,5.40,-3.36,0.05,-0.11,-0.14,-16.94,28.26,5.395518.00,-7.51,5.29,-3.61,0.09,-0.07,-0.23,-18.18,28.60,6.325531.00,-7.60,5.39,-3.59,0.06,-0.06,-0.33,-18.18,28.60,6.325542.00,-7.60,5.39,-3.59,0.06,-0.06,-0.33,-18.18,28.60,6.325554.00,-9.30,3.67,-3.40,0.06,-0.11,-0.39,-18.18,28.60,6.325567.00,-9.30,3.67,-3.40,0.06,-0.11,-0.39,-18.18,28.60,6.325579.00,-8.72,4.22,-2.56,-0.18,-0.16,-0.16,-18.18,28.60,6.325591.00,-8.31,5.17,-2.95,-0.18,-0.11,-0.08,-18.18,28.60,6.325603.00,-8.31,5.17,-2.95,-0.18,-0.11,-0.08,-18.18,28.60,6.325615.00,-8.17,4.56,-4.48,0.09,-0.14,-0.06,-18.18,28.60,6.325628.00,-8.17,4.56,-4.48,0.09,-0.14,-0.06,-18.18,28.60,6.325640.00,-7.82,4.42,-3.82,0.00,-0.50,0.04,-18.38,27.75,6.175652.00,-8.00,4.95,-2.80,0.04,-0.64,0.11,-18.38,27.75,6.175663.00,-8.00,4.95,-2.80,0.04,-0.64,0.11,-18.38,27.75,6.175677.00,-8.21,5.20,-2.30,0.06,-0.53,0.16,-18.38,27.75,6.175689.00,-8.21,5.20,-2.30,0.06,-0.53,0.16,-18.38,27.75,6.175701.00,-9.59,4.37,-1.57,0.15,-0.25,0.12,-18.38,27.75,6.175712.00,-8.84,3.62,-2.81,0.06,0.32,0.24,-18.38,27.75,6.175723.00,-8.84,3.62,-2.81,0.06,0.32,0.24,-18.38,27.75,6.175736.00,-7.21,5.57,-3.45,-0.26,0.56,0.33,-18.38,27.75,6.175747.00,-7.21,5.57,-3.45,-0.26,0.56,0.33,-18.38,27.75,6.175757.00,-6.55,6.23,-4.09,-0.23,0.48,0.05,-18.18,27.92,5.705769.00,-6.55,6.23,-4.09,-0.23,0.48,0.05,-18.18,27.92,5.705783.00,-6.35,6.30,-4.37,-0.10,0.22,-0.19,-18.18,27.92,5.705794.00,-6.82,5.87,-4.24,0.10,-0.11,-0.43,-18.18,27.92,5.705805.00,-6.82,5.87,-4.24,0.10,-0.11,-0.43,-18.18,27.92,5.705817.00,-8.76,4.50,-3.85,0.20,-0.39,-0.63,-18.18,27.92,5.705830.00,-8.76,4.50,-3.85,0.20,-0.39,-0.63,-18.18,27.92,5.705841.00,-8.95,2.26,-3.29,-0.09,-0.40,-0.33,-18.18,27.92,5.705852.00,-8.81,4.12,-2.54,-0.44,-0.31,-0.04,-18.18,27.92,5.705863.00,-8.81,4.12,-2.54,-0.44,-0.31,-0.04,-18.18,27.92,5.705876.00,-8.40,5.52,-2.51,-0.47,-0.20,-0.08,-18.18,27.92,5.705888.00,-8.40,5.52,-2.51,-0.47,-0.20,-0.08,-18.18,27.92,5.705900.00,-7.89,6.60,-2.26,-0.35,-0.04,-0.20,-19.21,26.39,5.545911.00,-7.68,5.88,-2.95,0.03,0.14,-0.25,-19.21,26.39,5.545923.00,-7.68,5.88,-2.95,0.03,0.14,-0.25,-19.21,26.39,5.545937.00,-7.98,5.07,-2.99,0.36,0.14,-0.23,-19.21,26.39,5.545948.00,-7.98,5.07,-2.99,0.36,0.14,-0.23,-19.21,26.39,5.545959.00,-8.07,4.28,-3.94,0.55,0.12,-0.15,-19.21,26.39,5.545971.00,-8.07,4.28,-3.94,0.55,0.12,-0.15,-19.21,26.39,5.545984.00,-7.80,4.16,-4.31,0.39,-0.08,0.05,-19.21,26.39,5.545995.00,-8.90,4.25,-3.19,0.15,-0.28,0.14,-19.21,26.39,5.546006.00,-8.90,4.25,-3.19,0.15,-0.28,0.14,-19.21,26.39,5.546017.00,-8.88,3.65,-2.69,-0.10,-0.30,0.10,-18.59,27.24,6.016030.00,-8.88,3.65,-2.69,-0.10,-0.30,0.10,-18.59,27.24,6.016042.00,-8.43,3.60,-3.61,-0.53,-0.34,0.11,-18.59,27.24,6.016053.00,-8.62,5.08,-2.85,-0.89,-0.37,0.06,-18.59,27.24,6.016065.00,-8.62,5.08,-2.85,-0.89,-0.37,0.06,-18.59,27.24,6.016079.00,-7.95,4.97,-2.85,-0.75,-0.12,-0.11,-18.59,27.24,6.016090.00,-7.95,4.97,-2.85,-0.75,-0.12,-0.11,-18.59,27.24,6.016101.00,-7.49,6.60,-2.41,-0.45,0.10,-0.16,-18.59,27.24,6.016113.00,-7.69,5.87,-3.08,0.08,0.19,-0.16,-18.59,27.24,6.016125.00,-7.69,5.87,-3.08,0.08,0.19,-0.16,-18.59,27.24,6.016137.00,-8.10,5.15,-2.58,0.28,0.10,-0.12,-20.45,28.77,6.796149.00,-8.10,5.15,-2.58,0.28,0.10,-0.12,-20.45,28.77,6.796161.00,-7.95,4.13,-3.27,0.37,0.05,-0.05,-20.45,28.77,6.796173.00,-8.59,4.05,-4.30,0.13,-0.14,0.09,-20.45,28.77,6.796188.00,-8.59,4.05,-4.30,0.13,-0.14,0.09,-20.45,28.77,6.796199.00,-8.75,4.25,-3.47,-0.27,-0.36,0.15,-20.45,28.77,6.796210.00,-8.75,4.25,-3.47,-0.27,-0.36,0.15,-20.45,28.77,6.796222.00,-8.62,4.13,-3.20,-0.47,-0.34,0.10,-20.45,28.77,6.796235.00,-8.60,5.31,-2.20,-0.62,-0.32,0.03,-20.45,28.77,6.796246.00,-8.60,5.31,-2.20,-0.62,-0.32,0.03,-20.45,28.77,6.796257.00,-7.87,5.14,-2.97,-0.39,-0.14,-0.13,-18.80,28.77,8.046269.00,-7.87,5.14,-2.97,-0.39,-0.14,-0.13,-18.80,28.77,8.046282.00,-7.77,6.04,-2.31,-0.08,-0.03,-0.12,-18.80,28.77,8.046293.00,-8.10,4.74,-2.64,0.22,0.07,-0.11,-18.80,28.77,8.046304.00,-8.10,4.74,-2.64,0.22,0.07,-0.11,-18.80,28.77,8.046315.00,-8.15,4.13,-2.86,0.27,0.04,-0.04,-18.80,28.77,8.046328.00,-8.15,4.13,-2.86,0.27,0.04,-0.04,-18.80,28.77,8.046340.00,-8.79,4.42,-3.07,0.06,-0.11,0.14,-18.80,28.77,8.046350.00,-8.79,4.42,-3.07,0.06,-0.11,0.14,-18.80,28.77,8.046361.00,-8.93,4.21,-2.53,-0.33,-0.25,0.20,-18.80,28.77,8.046373.00,-9.93,4.37,-1.41,-0.47,-0.12,0.14,-18.80,28.77,8.046378.00,-9.93,4.37,-1.41,-0.47,-0.12,0.14,-18.80,28.77,8.046456.00,-11.88,5.05,-3.18,0.64,0.23,-0.64,-21.27,28.43,8.986534.00,-9.12,5.21,-2.39,-0.08,-0.12,-0.07,-20.86,27.07,6.176612.00,-8.00,7.07,-2.12,-1.29,0.40,0.29,-20.86,27.07,6.176703.00,-5.27,3.39,-4.86,0.33,0.12,-0.19,-19.62,27.41,6.796714.00,-5.73,6.99,-5.55,0.54,-0.34,0.24,-19.62,27.41,6.796726.00,-5.73,6.99,-5.55,0.54,-0.34,0.24,-19.62,27.41,6.796738.00,-7.74,5.36,-2.61,1.19,-0.67,0.06,-19.62,27.41,6.796751.00,-7.74,5.36,-2.61,1.19,-0.67,0.06,-19.62,27.41,6.796763.00,-13.28,4.43,-1.47,1.55,-0.43,-0.16,-20.65,27.58,6.956774.00,-10.45,3.26,-2.21,0.80,0.14,0.03,-20.65,27.58,6.956786.00,-10.45,3.26,-2.21,0.80,0.14,0.03,-20.65,27.58,6.956799.00,-7.52,4.38,-2.83,0.06,0.31,0.18,-20.65,27.58,6.956810.00,-7.52,4.38,-2.83,0.06,0.31,0.18,-20.65,27.58,6.956821.00,-7.77,5.56,-3.41,-0.14,0.18,0.01,-20.65,27.58,6.956833.00,-8.48,3.82,-3.06,-0.05,0.10,-0.34,-20.65,27.58,6.956846.00,-8.48,3.82,-3.06,-0.05,0.10,-0.34,-20.65,27.58,6.956857.00,-7.31,2.76,-3.91,-0.12,0.15,-0.19,-20.65,27.58,6.956869.00,-7.31,2.76,-3.91,-0.12,0.15,-0.19,-20.65,27.58,6.956881.00,-5.88,5.28,-4.70,-0.29,0.05,0.44,-20.65,27.58,6.956892.00,-5.78,8.72,-4.99,-0.21,-0.16,0.56,-19.21,26.73,5.236906.00,-5.78,8.72,-4.99,-0.21,-0.16,0.56,-19.21,26.73,5.236918.00,-8.19,5.92,-3.05,0.37,-0.33,0.06,-19.21,26.73,5.236930.00,-8.19,5.92,-3.05,0.37,-0.33,0.06,-19.21,26.73,5.236942.00,-9.19,3.76,-3.32,0.35,-0.26,-0.05,-19.21,26.73,5.236954.00,-9.01,4.02,-2.88,-0.05,-0.24,0.07,-19.21,26.73,5.236966.00,-9.01,4.02,-2.88,-0.05,-0.24,0.07,-19.21,26.73,5.236978.00,-8.36,5.04,-2.90,-0.28,-0.17,0.11,-19.21,26.73,5.236990.00,-8.36,5.04,-2.90,-0.28,-0.17,0.11,-19.21,26.73,5.237003.00,-8.09,5.47,-3.16,-0.27,-0.15,0.09,-19.21,26.73,5.237014.00,-7.78,5.58,-3.35,-0.16,-0.13,-0.02,-17.56,27.75,6.177025.00,-7.78,5.58,-3.35,-0.16,-0.13,-0.02,-17.56,27.75,6.177037.00,-7.57,5.29,-3.67,-0.01,-0.08,-0.20,-17.56,27.75,6.177050.00,-7.57,5.29,-3.67,-0.01,-0.08,-0.20,-17.56,27.75,6.177062.00,-6.98,5.80,-3.87,0.03,-0.10,-0.39,-17.56,27.75,6.177074.00,-7.39,5.76,-3.46,0.12,-0.23,-0.57,-17.56,27.75,6.177086.00,-7.39,5.76,-3.46,0.12,-0.23,-0.57,-17.56,27.75,6.177099.00,-9.21,4.45,-2.78,0.04,-0.29,-0.39,-17.56,27.75,6.177109.00,-9.21,4.45,-2.78,0.04,-0.29,-0.39,-17.56,27.75,6.177121.00,-8.17,2.91,-3.33,0.11,-0.18,-0.10,-17.56,27.75,6.177133.00,-8.45,4.48,-3.82,0.02,-0.34,0.16,-21.27,27.07,7.117144.00,-8.45,4.48,-3.82,0.02,-0.34,0.16,-21.27,27.07,7.117157.00,-8.44,5.00,-2.55,-0.11,-0.53,0.18,-21.27,27.07,7.117170.00,-8.44,5.00,-2.55,-0.11,-0.53,0.18,-21.27,27.07,7.117182.00,-8.59,4.76,-3.00,-0.07,-0.40,0.06,-21.27,27.07,7.117193.00,-8.31,3.70,-4.04,-0.11,-0.27,-0.02,-21.27,27.07,7.117206.00,-8.31,3.70,-4.04,-0.11,-0.27,-0.02,-21.27,27.07,7.117218.00,-8.47,4.66,-2.55,-0.49,-0.33,0.02,-21.27,27.07,7.117229.00,-8.47,4.66,-2.55,-0.49,-0.33,0.02,-21.27,27.07,7.117240.00,-8.05,5.06,-1.90,-0.61,-0.10,-0.09,-21.27,27.07,7.117254.00,-7.95,5.10,-2.79,-0.39,0.26,-0.24,-22.10,27.41,7.737266.00,-7.95,5.10,-2.79,-0.39,0.26,-0.24,-22.10,27.41,7.737277.00,-7.87,5.56,-2.73,-0.16,0.38,-0.21,-22.10,27.41,7.737289.00,-7.87,5.56,-2.73,-0.16,0.38,-0.21,-22.10,27.41,7.737302.00,-8.00,5.27,-3.46,-0.00,0.31,-0.17,-22.10,27.41,7.737314.00,-8.14,4.66,-3.10,0.05,0.09,-0.13,-22.10,27.41,7.737326.00,-8.14,4.66,-3.10,0.05,0.09,-0.13,-22.10,27.41,7.737338.00,-8.53,3.97,-3.05,0.07,-0.03,-0.07,-22.10,27.41,7.737351.00,-8.53,3.97,-3.05,0.07,-0.03,-0.07,-22.10,27.41,7.737362.00,-8.48,3.76,-3.74,-0.03,-0.09,-0.01,-22.10,27.41,7.737374.00,-8.87,4.10,-3.33,-0.24,-0.24,0.05,-22.10,27.41,7.737386.00,-8.87,4.10,-3.33,-0.24,-0.24,0.05,-22.10,27.41,7.737397.00,-9.01,4.98,-3.14,-0.53,-0.36,0.04,-20.24,28.26,7.587402.00,-9.01,4.98,-3.14,-0.53,-0.36,0.04,-20.24,28.26,7.587480.00,-8.12,4.53,-2.67,0.46,0.09,-0.23,-20.24,28.26,7.587558.00,-9.23,5.48,-1.55,-0.59,-0.36,0.22,-22.31,26.90,7.587637.00,-6.07,7.83,-3.88,0.01,0.58,0.02,-20.65,26.90,6.957727.00,-9.46,4.47,-3.15,-0.06,-0.11,0.02,-20.65,26.90,6.957738.00,-8.83,5.83,-2.91,-0.14,-0.17,-0.04,-20.65,26.90,6.957749.00,-8.83,5.83,-2.91,-0.14,-0.17,-0.04,-20.65,26.90,6.957761.00,-9.69,4.26,-2.23,-0.05,-0.08,-0.03,-21.89,27.92,6.327774.00,-6.87,4.18,-3.57,-0.15,0.10,0.20,-21.89,27.92,6.327784.00,-6.87,4.18,-3.57,-0.15,0.10,0.20,-21.89,27.92,6.327796.00,-6.80,5.53,-4.12,-0.19,-0.03,0.05,-21.89,27.92,6.327807.00,-6.80,5.53,-4.12,-0.19,-0.03,0.05,-21.89,27.92,6.327819.00,-6.38,5.50,-4.50,-0.04,-0.25,-0.14,-21.89,27.92,6.327831.00,-6.38,5.50,-4.50,-0.04,-0.25,-0.14,-21.89,27.92,6.327843.00,-8.22,4.75,-3.20,0.09,-0.56,-0.37,-21.89,27.92,6.327854.00,-9.72,2.71,-2.42,0.03,-0.50,-0.27,-21.89,27.92,6.327868.00,-9.72,2.71,-2.42,0.03,-0.50,-0.27,-21.89,27.92,6.327880.00,-9.29,3.96,-2.37,-0.18,-0.24,0.03,-21.89,27.92,6.327891.00,-9.29,3.96,-2.37,-0.18,-0.24,0.03,-21.89,27.92,6.327901.00,-8.55,5.22,-2.69,-0.17,0.02,-0.05,-21.48,27.58,6.957913.00,-7.94,5.91,-2.84,-0.10,0.12,-0.08,-21.48,27.58,6.957926.00,-7.94,5.91,-2.84,-0.10,0.12,-0.08,-21.48,27.58,6.957937.00,-8.14,5.24,-2.51,0.08,0.09,-0.11,-21.48,27.58,6.957947.00,-8.14,5.24,-2.51,0.08,0.09,-0.11,-21.48,27.58,6.957959.00,-8.17,4.12,-2.87,0.39,0.15,-0.08,-21.48,27.58,6.957972.00,-8.62,4.00,-3.23,0.52,0.10,0.09,-21.48,27.58,6.957984.00,-8.62,4.00,-3.23,0.52,0.10,0.09,-21.48,27.58,6.957995.00,-8.97,4.44,-3.18,0.32,-0.06,0.20,-21.48,27.58,6.958007.00,-8.97,4.44,-3.18,0.32,-0.06,0.20,-21.48,27.58,6.958021.00,-8.30,3.33,-4.59,-0.04,-0.21,0.17,-23.34,26.73,6.798033.00,-9.12,4.44,-1.88,-0.48,-0.43,0.15,-23.34,26.73,6.798044.00,-9.12,4.44,-1.88,-0.48,-0.43,0.15,-23.34,26.73,6.798055.00,-8.64,4.08,-3.49,-0.61,-0.32,0.03,-23.34,26.73,6.798069.00,-8.64,4.08,-3.49,-0.61,-0.32,0.03,-23.34,26.73,6.798080.00,-8.76,4.67,-2.49,-0.77,-0.36,-0.01,-23.34,26.73,6.798091.00,-8.76,4.67,-2.49,-0.77,-0.36,-0.01,-23.34,26.73,6.798103.00,-8.44,4.90,-2.30,-0.70,-0.23,-0.08,-23.34,26.73,6.798117.00,-8.37,5.25,-2.15,-0.55,-0.10,-0.10,-23.34,26.73,6.798128.00,-8.37,5.25,-2.15,-0.55,-0.10,-0.10,-23.34,26.73,6.798140.00,-8.24,4.91,-2.72,-0.30,-0.01,-0.12,-21.69,26.05,8.678150.00,-8.24,4.91,-2.72,-0.30,-0.01,-0.12,-21.69,26.05,8.678162.00,-8.09,4.41,-3.12,-0.17,-0.07,-0.04,-21.69,26.05,8.678176.00,-8.47,4.30,-2.84,-0.15,-0.16,0.06,-21.69,26.05,8.678188.00,-8.47,4.30,-2.84,-0.15,-0.16,0.06,-21.69,26.05,8.678199.00,-8.93,4.59,-2.11,-0.21,-0.13,0.03,-21.69,26.05,8.678211.00,-8.93,4.59,-2.11,-0.21,-0.13,0.03,-21.69,26.05,8.678224.00,-9.24,4.67,-1.63,-0.34,0.02,-0.11,-21.69,26.05,8.678235.00,-8.56,4.82,-2.31,-0.35,0.25,-0.30,-21.69,26.05,8.678247.00,-8.56,4.82,-2.31,-0.35,0.25,-0.30,-21.69,26.05,8.678259.00,-8.01,4.92,-2.81,-0.35,0.20,-0.33,-22.51,27.41,9.928272.00,-8.01,4.92,-2.81,-0.35,0.20,-0.33,-22.51,27.41,9.928284.00,-8.12,4.48,-3.22,-0.22,-0.00,-0.21,-22.51,27.41,9.928296.00,-8.27,3.87,-3.18,-0.12,-0.22,-0.04,-22.51,27.41,9.928308.00,-8.27,3.87,-3.18,-0.12,-0.22,-0.04,-22.51,27.41,9.928321.00,-8.72,4.62,-1.89,-0.07,-0.38,0.18,-22.51,27.41,9.928331.00,-8.72,4.62,-1.89,-0.07,-0.38,0.18,-22.51,27.41,9.928343.00,-9.13,5.21,-1.32,-0.03,-0.25,0.12,-22.51,27.41,9.928355.00,-9.61,3.46,-2.08,-0.12,0.05,-0.04,-22.51,27.41,9.928368.00,-9.61,3.46,-2.08,-0.12,0.05,-0.04,-22.51,27.41,9.928378.00,-9.59,3.42,-1.76,-0.28,0.48,-0.04,-23.13,26.56,10.398390.00,-9.59,3.42,-1.76,-0.28,0.48,-0.04,-23.13,26.56,10.398403.00,-8.23,3.75,-2.92,-0.39,0.75,-0.07,-23.13,26.56,10.398416.00,-7.35,5.25,-2.92,-0.51,0.92,-0.05,-23.13,26.56,10.398428.00,-7.35,5.25,-2.92,-0.51,0.92,-0.05,-23.13,26.56,10.398439.00,-5.34,7.06,-4.11,-0.49,1.00,-0.28,-23.13,26.56,10.398451.00,-5.34,7.06,-4.11,-0.49,1.00,-0.28,-23.13,26.56,10.398463.00,-5.66,6.40,-5.23,-0.09,0.39,-0.76,-23.13,26.56,10.398476.00,-12.70,2.47,0.10,-0.06,-0.44,-0.91,-23.13,26.56,10.398488.00,-12.70,2.47,0.10,-0.06,-0.44,-0.91,-23.13,26.56,10.398499.00,-8.82,2.57,-1.58,-0.11,-0.21,-0.40,-23.13,26.56,10.398511.00,-8.82,2.57,-1.58,-0.11,-0.21,-0.40,-23.13,26.56,10.398524.00,-8.47,4.34,-4.37,-0.14,-0.49,0.07,-23.75,26.05,8.988535.00,-8.79,4.15,-2.29,-0.25,-0.92,0.31,-23.75,26.05,8.988547.00,-8.79,4.15,-2.29,-0.25,-0.92,0.31,-23.75,26.05,8.988559.00,-8.22,3.40,-3.35,-0.23,-0.82,0.32,-23.75,26.05,8.988572.00,-8.22,3.40,-3.35,-0.23,-0.82,0.32,-23.75,26.05,8.988584.00,-8.99,5.49,-0.89,-0.26,-0.76,0.34,-23.75,26.05,8.988595.00,-10.54,3.80,-0.97,0.23,-0.24,0.16,-23.75,26.05,8.988607.00,-10.54,3.80,-0.97,0.23,-0.24,0.16,-23.75,26.05,8.988620.00,-9.12,3.39,-1.32,0.30,0.41,0.27,-23.75,26.05,8.988631.00,-9.12,3.39,-1.32,0.30,0.41,0.27,-23.75,26.05,8.988643.00,-6.29,4.82,-3.91,0.20,0.77,0.29,-23.34,27.07,9.618655.00,-6.75,7.57,-3.20,0.21,0.57,0.02,-23.34,27.07,9.618668.00,-6.75,7.57,-3.20,0.21,0.57,0.02,-23.34,27.07,9.618680.00,-6.74,5.50,-4.56,0.56,0.19,-0.62,-23.34,27.07,9.618691.00,-6.74,5.50,-4.56,0.56,0.19,-0.62,-23.34,27.07,9.618703.00,-10.74,2.45,-1.83,-0.00,-0.41,-0.59,-23.34,27.07,9.618715.00,-10.09,2.85,-2.86,-0.68,-0.28,-0.17,-23.34,27.07,9.618728.00,-10.09,2.85,-2.86,-0.68,-0.28,-0.17,-23.34,27.07,9.618740.00,-9.26,4.72,-1.67,-0.94,-0.29,-0.10,-23.34,27.07,9.618752.00,-9.26,4.72,-1.67,-0.94,-0.29,-0.10,-23.34,27.07,9.618764.00,-9.32,4.01,-0.81,-0.43,-0.02,-0.11,-24.37,26.90,10.708777.00,-13.04,-1.04,-0.57,-0.04,0.41,0.49,-24.37,26.90,10.708788.00,-13.04,-1.04,-0.57,-0.04,0.41,0.49,-24.37,26.90,10.708799.00,-7.59,7.55,-2.15,-0.49,0.73,1.69,-24.37,26.90,10.708811.00,-7.59,7.55,-2.15,-0.49,0.73,1.69,-24.37,26.90,10.708823.00,-7.76,3.80,-0.99,0.50,0.85,0.70,-24.37,26.90,10.708835.00,-6.90,4.16,-3.77,1.60,1.04,0.18,-24.37,26.90,10.708847.00,-6.90,4.16,-3.77,1.60,1.04,0.18,-24.37,26.90,10.708859.00,-4.63,5.62,-3.71,2.32,0.94,0.00,-24.37,26.90,10.708872.00,-4.63,5.62,-3.71,2.32,0.94,0.00,-24.37,26.90,10.708884.00,-4.57,5.96,-4.06,2.88,0.92,-0.06,-20.65,26.90,6.018896.00,-5.13,3.27,-7.00,0.67,0.60,0.30,-20.65,26.90,6.018908.00,-5.13,3.27,-7.00,0.67,0.60,0.30,-20.65,26.90,6.018922.00,-8.75,8.97,-4.82,-2.03,-0.24,0.84,-20.65,26.90,6.018932.00,-8.75,8.97,-4.82,-2.03,-0.24,0.84,-20.65,26.90,6.018944.00,-7.99,9.46,-6.04,-1.26,-0.39,0.36,-20.65,26.90,6.018956.00,-7.96,2.67,-4.57,0.70,-0.24,-0.39,-20.65,26.90,6.018966.00,-7.96,2.67,-4.57,0.70,-0.24,-0.39,-20.65,26.90,6.018980.00,-10.25,2.21,-4.05,-0.04,-0.40,-0.39,-20.65,26.90,6.018992.00,-10.25,2.21,-4.05,-0.04,-0.40,-0.39,-20.65,26.90,6.019003.00,-9.50,3.31,-2.63,-1.24,-0.49,0.03,-20.65,26.90,6.019016.00,-8.30,4.97,-2.50,-1.72,-0.43,0.29,-20.24,28.26,8.209030.00,-8.30,4.97,-2.50,-1.72,-0.43,0.29,-20.24,28.26,8.209042.00,-8.22,6.15,-1.80,-1.28,-0.31,0.29,-20.24,28.26,8.209054.00,-7.71,5.49,-3.21,-0.40,0.03,0.14,-20.24,28.26,8.209064.00,-7.71,5.49,-3.21,-0.40,0.03,0.14,-20.24,28.26,8.209078.00,-7.46,5.45,-3.44,-0.16,0.12,0.07,-20.24,28.26,8.209090.00,-7.46,5.45,-3.44,-0.16,0.12,0.07,-20.24,28.26,8.209101.00,-7.76,5.06,-3.24,-0.19,0.13,0.01,-20.24,28.26,8.209113.00,-8.36,4.81,-3.21,-0.42,0.10,-0.02,-20.24,28.26,8.209125.00,-8.36,4.81,-3.21,-0.42,0.10,-0.02,-20.24,28.26,8.209137.00,-8.43,6.18,-3.78,-0.47,0.10,-0.06,-19.00,29.28,10.709148.00,-8.43,6.18,-3.78,-0.47,0.10,-0.06,-19.00,29.28,10.709160.00,-7.63,4.86,-3.22,0.21,0.24,-0.21,-19.00,29.28,10.709173.00,-7.26,5.91,-3.24,0.01,0.16,-0.32,-19.00,29.28,10.709185.00,-7.26,5.91,-3.24,0.01,0.16,-0.32,-19.00,29.28,10.709197.00,-8.76,5.06,-3.16,0.07,0.03,-0.43,-19.00,29.28,10.709208.00,-8.76,5.06,-3.16,0.07,0.03,-0.43,-19.00,29.28,10.709212.00,-8.76,5.06,-3.16,0.07,0.03,-0.43,-19.00,29.28,10.709289.00,-7.75,4.19,-3.99,0.83,-0.15,-0.04,-20.24,28.94,8.839367.00,-8.61,4.01,-3.40,-0.33,-0.38,0.23,-20.24,28.94,8.839446.00,-6.53,7.21,-3.67,-0.06,0.58,-0.14,-19.83,28.94,10.089524.00,-9.33,5.82,-2.80,-0.00,-0.17,-0.03,-20.24,28.60,11.339613.00,-6.29,6.29,-3.67,-0.05,-0.17,-0.13,-20.24,28.60,11.339625.00,-6.29,6.29,-3.67,-0.05,-0.17,-0.13,-20.24,28.60,11.339636.00,-7.07,5.87,-3.51,0.06,-0.35,-0.39,-20.65,27.24,10.089648.00,-7.07,5.87,-3.51,0.06,-0.35,-0.39,-20.65,27.24,10.089661.00,-9.68,3.85,-2.30,0.16,-0.43,-0.32,-20.65,27.24,10.089672.00,-9.68,3.85,-2.30,0.16,-0.43,-0.32,-20.65,27.24,10.089683.00,-8.57,2.91,-2.72,0.16,-0.31,-0.01,-20.65,27.24,10.089695.00,-8.77,5.12,-2.42,0.01,-0.37,0.19,-20.65,27.24,10.089707.00,-8.77,5.12,-2.42,0.01,-0.37,0.19,-20.65,27.24,10.089719.00,-8.54,5.12,-2.17,-0.07,-0.34,0.10,-20.65,27.24,10.089731.00,-8.54,5.12,-2.17,-0.07,-0.34,0.10,-20.65,27.24,10.089743.00,-8.40,4.66,-2.64,-0.14,-0.21,0.00,-20.65,27.24,10.089756.00,-8.33,4.71,-2.83,-0.34,-0.17,-0.04,-21.07,26.22,9.459768.00,-8.33,4.71,-2.83,-0.34,-0.17,-0.04,-21.07,26.22,9.459780.00,-8.36,5.01,-2.46,-0.47,-0.16,-0.06,-21.07,26.22,9.459792.00,-8.36,5.01,-2.46,-0.47,-0.16,-0.06,-21.07,26.22,9.459806.00,-8.45,5.10,-2.15,-0.37,-0.03,-0.08,-21.07,26.22,9.459818.00,-8.03,5.41,-1.81,-0.23,0.19,-0.11,-21.07,26.22,9.459830.00,-8.03,5.41,-1.81,-0.23,0.19,-0.11,-21.07,26.22,9.459841.00,-7.72,5.89,-2.13,-0.02,0.36,-0.12,-21.07,26.22,9.459855.00,-7.89,4.64,-2.89,0.33,0.33,-0.12,-21.07,26.22,9.459867.00,-7.89,4.64,-2.89,0.33,0.33,-0.12,-21.07,26.22,9.459878.00,-8.51,4.12,-3.03,0.40,0.13,-0.01,-20.86,27.07,9.929888.00,-8.51,4.12,-3.03,0.40,0.13,-0.01,-20.86,27.07,9.929900.00,-8.45,3.95,-3.63,0.20,-0.04,0.08,-20.86,27.07,9.929913.00,-8.45,3.95,-3.63,0.20,-0.04,0.08,-20.86,27.07,9.929925.00,-8.58,4.26,-3.60,-0.18,-0.34,0.16,-20.86,27.07,9.929935.00,-9.04,4.67,-3.69,-0.36,-0.42,0.10,-20.86,27.07,9.929947.00,-9.04,4.67,-3.69,-0.36,-0.42,0.10,-20.86,27.07,9.929960.00,-8.52,4.45,-1.32,-0.55,-0.51,-0.01,-20.86,27.07,9.929970.00,-8.52,4.45,-1.32,-0.55,-0.51,-0.01,-20.86,27.07,9.929982.00,-8.22,4.62,-2.09,-0.58,-0.35,-0.09,-20.86,27.07,9.929994.00,-7.94,5.00,-1.19,-0.54,-0.14,-0.14,-20.86,27.07,9.9210007.00,-7.94,5.00,-1.19,-0.54,-0.14,-0.14,-20.86,27.07,9.9210019.00,-7.94,6.07,-1.79,-0.25,0.12,-0.12,-19.42,27.58,11.9510031.00,-7.94,6.07,-1.79,-0.25,0.12,-0.12,-19.42,27.58,11.9510042.00,-8.19,5.76,-1.83,0.04,0.14,-0.11,-19.42,27.58,11.9510055.00,-8.25,4.25,-2.74,0.30,0.11,-0.10,-19.42,27.58,11.9510067.00,-8.25,4.25,-2.74,0.30,0.11,-0.10,-19.42,27.58,11.9510079.00,-8.39,4.29,-3.45,0.27,-0.04,0.03,-19.42,27.58,11.9510091.00,-8.39,4.29,-3.45,0.27,-0.04,0.03,-19.42,27.58,11.9510104.00,-8.93,4.51,-2.08,0.04,-0.29,0.13,-19.42,27.58,11.9510116.00,-8.71,4.30,-2.33,-0.26,-0.40,0.09,-19.42,27.58,11.9510128.00,-8.71,4.30,-2.33,-0.26,-0.40,0.09,-19.42,27.58,11.9510138.00,-8.75,5.08,-2.56,-0.44,-0.39,0.04,-21.69,27.07,11.8010152.00,-8.75,5.08,-2.56,-0.44,-0.39,0.04,-21.69,27.07,11.8010164.00,-8.86,5.55,-1.51,-0.45,-0.33,-0.10,-21.69,27.07,11.8010176.00,-8.18,4.93,-1.93,-0.31,-0.12,-0.25,-21.69,27.07,11.8010187.00,-8.18,4.93,-1.93,-0.31,-0.12,-0.25,-21.69,27.07,11.8010201.00,-8.16,5.25,-1.37,-0.16,-0.05,-0.25,-21.69,27.07,11.8010211.00,-8.16,5.25,-1.37,-0.16,-0.05,-0.25,-21.69,27.07,11.8010223.00,-8.44,5.25,-2.06,0.02,-0.01,-0.22,-21.69,27.07,11.8010235.00,-8.11,4.95,-1.84,0.10,-0.07,-0.17,-21.69,27.07,11.8010248.00,-8.11,4.95,-1.84,0.10,-0.07,-0.17,-21.69,27.07,11.8010260.00,-8.23,5.29,-2.35,0.21,-0.04,-0.09,-21.48,27.24,11.9510271.00,-8.23,5.29,-2.35,0.21,-0.04,-0.09,-21.48,27.24,11.9510283.00,-7.47,4.18,-3.11,0.34,-0.03,-0.06,-21.48,27.24,11.9510287.00,-7.47,4.18,-3.11,0.34,-0.03,-0.06,-21.48,27.24,11.9510364.00,-9.61,5.49,-1.57,-0.17,0.19,0.13,-21.48,27.24,11.9510444.00,-8.00,4.52,-1.96,-0.48,0.39,-0.15,-21.69,27.75,11.8010521.00,-7.35,3.56,-2.84,0.11,0.15,-0.11,-23.34,27.07,10.8610611.00,-8.95,5.80,-2.48,0.98,-0.08,0.47,-23.34,27.07,10.8610623.00,-9.05,3.34,-3.68,0.81,0.05,0.48,-23.34,27.07,10.8610635.00,-8.95,3.82,-2.99,0.30,-0.09,0.58,-20.24,27.92,9.7610647.00,-8.95,3.82,-2.99,0.30,-0.09,0.58,-20.24,27.92,9.7610658.00,-8.13,5.07,-2.81,-0.06,-0.17,0.49,-20.24,27.92,9.7610671.00,-8.13,5.07,-2.81,-0.06,-0.17,0.49,-20.24,27.92,9.7610683.00,-7.78,6.13,-2.76,-0.21,-0.22,0.26,-20.24,27.92,9.7610694.00,-8.37,5.61,-2.38,-0.21,-0.23,-0.03,-20.24,27.92,9.7610705.00,-8.37,5.61,-2.38,-0.21,-0.23,-0.03,-20.24,27.92,9.7610718.00,-8.50,5.28,-2.37,-0.20,-0.15,-0.07,-20.24,27.92,9.7610730.00,-8.50,5.28,-2.37,-0.20,-0.15,-0.07,-20.24,27.92,9.7610742.00,-7.98,5.33,-2.66,-0.17,-0.06,-0.02,-20.24,27.92,9.7610753.00,-7.98,5.33,-2.66,-0.17,-0.06,-0.02,-20.24,27.92,9.7610767.00,-7.89,5.43,-2.83,-0.09,-0.05,-0.03,-22.31,27.92,11.6410779.00,-7.83,5.49,-2.92,-0.01,-0.07,-0.07,-22.31,27.92,11.6410791.00,-7.83,5.49,-2.92,-0.01,-0.07,-0.07,-22.31,27.92,11.6410801.00,-7.67,5.52,-2.92,0.01,-0.13,-0.16,-22.31,27.92,11.6410815.00,-7.71,5.66,-2.98,0.04,-0.19,-0.33,-22.31,27.92,11.6410827.00,-7.71,5.66,-2.98,0.04,-0.19,-0.33,-22.31,27.92,11.6410839.00,-8.97,4.94,-2.77,0.11,-0.21,-0.29,-22.31,27.92,11.6410850.00,-8.97,4.94,-2.77,0.11,-0.21,-0.29,-22.31,27.92,11.6410863.00,-8.78,4.88,-1.84,-0.02,-0.21,-0.13,-22.31,27.92,11.6410874.00,-8.28,4.59,-2.95,0.06,-0.08,-0.11,-22.31,26.90,11.6410886.00,-8.28,4.59,-2.95,0.06,-0.08,-0.11,-22.31,26.90,11.6410897.00,-8.39,4.92,-2.78,-0.03,-0.09,-0.08,-22.31,26.90,11.6410910.00,-8.39,4.92,-2.78,-0.03,-0.09,-0.08,-22.31,26.90,11.6410922.00,-8.87,4.88,-2.28,-0.18,-0.09,-0.12,-22.31,26.90,11.6410934.00,-8.72,4.21,-2.73,-0.26,0.08,-0.21,-22.31,26.90,11.6410944.00,-8.72,4.21,-2.73,-0.26,0.08,-0.21,-22.31,26.90,11.6410958.00,-8.25,5.42,-1.79,-0.56,0.10,-0.20,-22.31,26.90,11.6410970.00,-8.25,5.42,-1.79,-0.56,0.10,-0.20,-22.31,26.90,11.6410981.00,-7.73,6.28,-1.81,-0.40,0.27,-0.25,-22.31,26.90,11.6410993.00,-7.73,6.28,-1.81,-0.40,0.27,-0.25,-22.31,26.90,11.6411007.00,-7.74,5.78,-2.26,0.04,0.42,-0.22,-22.31,26.90,11.6411018.00,-8.11,5.34,-2.31,0.23,0.38,-0.12,-19.62,27.75,10.5511029.00,-8.11,5.34,-2.31,0.23,0.38,-0.12,-19.62,27.75,10.5511041.00,-8.04,4.60,-3.00,0.28,0.27,0.02,-19.62,27.75,10.5511054.00,-8.47,4.65,-3.82,0.19,0.04,0.20,-19.62,27.75,10.5511065.00,-8.47,4.65,-3.82,0.19,0.04,0.20,-19.62,27.75,10.5511076.00,-9.08,4.97,-3.66,-0.03,-0.25,0.22,-19.62,27.75,10.5511088.00,-9.08,4.97,-3.66,-0.03,-0.25,0.22,-19.62,27.75,10.5511101.00,-8.73,5.26,-4.52,-0.17,-0.50,0.24,-19.62,27.75,10.5511111.00,-8.73,5.26,-4.52,-0.17,-0.50,0.24,-19.62,27.75,10.5511123.00,-9.03,4.75,-2.10,-0.24,-0.78,0.15,-19.62,27.75,10.5511135.00,-8.87,4.66,-3.17,-0.20,-0.64,0.04,-21.07,27.24,11.6411148.00,-8.87,4.66,-3.17,-0.20,-0.64,0.04,-21.07,27.24,11.6411159.00,-8.33,4.76,-2.10,-0.50,-0.63,-0.04,-21.07,27.24,11.6411171.00,-8.33,4.76,-2.10,-0.50,-0.63,-0.04,-21.07,27.24,11.6411183.00,-8.44,5.50,-1.45,-0.58,-0.41,-0.07,-21.07,27.24,11.6411195.00,-8.42,5.89,-1.53,-0.41,-0.07,-0.11,-21.07,27.24,11.6411207.00,-8.42,5.89,-1.53,-0.41,-0.07,-0.11,-21.07,27.24,11.6411219.00,-7.83,5.21,-3.50,-0.19,0.22,-0.17,-21.07,27.24,11.6411231.00,-7.83,5.21,-3.50,-0.19,0.22,-0.17,-21.07,27.24,11.6411244.00,-8.14,6.24,-1.86,-0.22,0.16,-0.09,-21.07,27.24,11.6411256.00,-8.26,5.21,-2.22,0.06,0.22,-0.11,-21.69,27.75,12.7311266.00,-8.26,5.21,-2.22,0.06,0.22,-0.11,-21.69,27.75,12.7311278.00,-8.28,4.69,-2.73,0.13,0.13,-0.10,-21.69,27.75,12.7311291.00,-8.28,4.69,-2.73,0.13,0.13,-0.10,-21.69,27.75,12.7311302.00,-8.29,4.65,-2.73,0.03,0.00,-0.04,-21.69,27.75,12.7311313.00,-8.29,4.65,-2.73,0.03,0.00,-0.04,-21.69,27.75,12.7311324.00,-8.33,5.01,-2.40,-0.08,-0.07,0.01,-21.69,27.75,12.7311335.00,-8.32,5.08,-2.27,-0.10,-0.08,0.01,-21.69,27.75,12.7311348.00,-8.32,5.08,-2.27,-0.10,-0.08,0.01,-21.69,27.75,12.7311360.00,-8.45,5.18,-1.98,-0.07,-0.11,0.00,-21.69,27.75,12.7311372.00,-8.45,5.18,-1.98,-0.07,-0.11,0.00,-21.69,27.75,12.7311382.00,-8.39,5.15,-2.63,0.10,-0.06,-0.02,-21.69,27.07,13.0511396.00,-8.40,4.85,-2.73,0.10,-0.19,-0.02,-21.69,27.07,13.0511408.00,-8.40,4.85,-2.73,0.10,-0.19,-0.02,-21.69,27.07,13.0511419.00,-8.67,5.21,-2.72,0.04,-0.25,-0.04,-21.69,27.07,13.0511431.00,-8.67,5.21,-2.72,0.04,-0.25,-0.04,-21.69,27.07,13.0511444.00,-8.43,5.23,-1.38,0.06,-0.30,-0.09,-21.69,27.07,13.0511455.00,-8.20,4.83,-2.23,0.15,-0.17,-0.11,-21.69,27.07,13.0511466.00,-8.20,4.83,-2.23,0.15,-0.17,-0.11,-21.69,27.07,13.0511478.00,-8.13,4.89,-2.28,0.14,-0.15,-0.07,-21.69,27.07,13.0511491.00,-8.13,4.89,-2.28,0.14,-0.15,-0.07,-21.69,27.07,13.0511503.00,-8.03,4.87,-2.35,0.13,-0.11,-0.03,-22.93,27.07,11.4811514.00,-8.03,4.57,-1.77,0.13,-0.08,0.04,-22.93,27.07,11.4811526.00,-8.03,4.57,-1.77,0.13,-0.08,0.04,-22.93,27.07,11.4811539.00,-8.43,4.73,-2.22,0.11,0.04,0.13,-22.93,27.07,11.4811550.00,-8.43,4.73,-2.22,0.11,0.04,0.13,-22.93,27.07,11.4811560.00,-8.43,4.80,-2.08,0.03,0.10,0.14,-22.93,27.07,11.4811572.00,-8.43,4.80,-2.08,0.03,0.10,0.14,-22.93,27.07,11.4811585.00,-8.72,3.99,-2.52,0.06,0.11,0.12,-22.93,27.07,11.4811597.00,-8.79,4.86,-2.35,-0.06,0.02,0.17,-22.93,27.07,11.4811609.00,-8.79,4.86,-2.35,-0.06,0.02,0.17,-22.93,27.07,11.4811621.00,-9.54,3.58,-2.22,-0.11,0.02,0.16,-22.93,27.07,11.4811634.00,-9.26,3.59,-3.01,-0.27,0.08,0.51,-21.27,28.43,10.5511646.00,-9.26,3.59,-3.01,-0.27,0.08,0.51,-21.27,28.43,10.5511658.00,-7.87,5.41,-2.63,-0.40,0.05,0.85,-21.27,28.43,10.5511669.00,-7.87,5.41,-2.63,-0.40,0.05,0.85,-21.27,28.43,10.5511683.00,-7.85,6.01,-2.13,-0.11,-0.01,0.73,-21.27,28.43,10.5511695.00,-8.27,6.50,-2.11,0.23,-0.06,0.39,-21.27,28.43,10.5511707.00,-8.27,6.50,-2.11,0.23,-0.06,0.39,-21.27,28.43,10.5511718.00,-9.20,5.46,-1.55,0.36,-0.05,0.01,-21.27,28.43,10.5511731.00,-9.20,5.46,-1.55,0.36,-0.05,0.01,-21.27,28.43,10.5511742.00,-8.17,7.31,-2.03,0.18,-0.03,-0.31,-21.27,28.43,10.5511754.00,-8.17,7.31,-2.03,0.18,-0.03,-0.31,-21.27,28.43,10.5511765.00,-7.45,4.66,-1.54,0.40,-0.00,-0.83,-19.00,27.92,11.6411777.00,-6.74,4.39,-2.16,0.49,0.14,-0.59,-19.00,27.92,11.6411790.00,-6.74,4.39,-2.16,0.49,0.14,-0.59,-19.00,27.92,11.6411801.00,-6.27,5.09,-2.13,0.39,0.16,-0.05,-19.00,27.92,11.6411812.00,-6.27,5.09,-2.13,0.39,0.16,-0.05,-19.00,27.92,11.6411824.00,-5.91,8.47,-4.30,0.20,0.15,0.50,-19.00,27.92,11.6411837.00,-7.38,6.99,-2.89,0.18,-0.09,0.16,-19.00,27.92,11.6411849.00,-7.38,6.99,-2.89,0.18,-0.09,0.16,-19.00,27.92,11.6411861.00,-8.81,4.15,-3.36,0.44,-0.07,-0.05,-19.00,27.92,11.6411873.00,-8.81,4.15,-3.36,0.44,-0.07,-0.05,-19.00,27.92,11.6411885.00,-9.40,2.90,-3.20,0.31,-0.09,-0.06,-20.45,27.75,9.2911897.00,-9.15,3.20,-2.74,-0.08,-0.11,0.02,-20.45,27.75,9.2911908.00,-9.15,3.20,-2.74,-0.08,-0.11,0.02,-20.45,27.75,9.2911919.00,-8.23,5.27,-2.61,-0.39,-0.12,0.15,-20.45,27.75,9.2911933.00,-8.23,5.27,-2.61,-0.39,-0.12,0.15,-20.45,27.75,9.2911945.00,-7.91,6.24,-2.29,-0.38,-0.14,0.13,-20.45,27.75,9.2911956.00,-7.97,5.90,-2.51,-0.19,-0.11,0.02,-20.45,27.75,9.2911968.00,-7.97,5.90,-2.51,-0.19,-0.11,0.02,-20.45,27.75,9.2911981.00,-8.24,5.35,-2.49,-0.07,-0.09,-0.03,-20.45,27.75,9.2911992.00,-8.24,5.35,-2.49,-0.07,-0.09,-0.03,-20.45,27.75,9.2912004.00,-8.28,5.04,-2.70,-0.05,-0.07,-0.04,-20.65,28.60,10.3912016.00,-8.40,5.02,-2.52,-0.09,-0.07,-0.02,-20.65,28.60,10.3912029.00,-8.40,5.02,-2.52,-0.09,-0.07,-0.02,-20.65,28.60,10.3912041.00,-8.22,5.09,-2.54,-0.12,-0.05,0.02,-20.65,28.60,10.3912053.00,-8.22,5.09,-2.54,-0.12,-0.05,0.02,-20.65,28.60,10.3912064.00,-8.13,5.45,-2.52,-0.14,-0.06,0.03,-20.65,28.60,10.3912068.00,-8.13,5.45,-2.52,-0.14,-0.06,0.03,-20.65,28.60,10.3912145.00,-7.87,5.27,-2.78,-0.01,-0.07,-0.04,-21.07,28.60,9.4512225.00,-8.16,4.66,-2.72,0.05,-0.02,-0.25,-21.07,28.60,9.4512302.00,-8.19,5.55,-2.13,-0.29,0.02,-0.12,-20.45,29.11,12.1112393.00,-8.20,5.09,-2.50,0.18,-0.28,0.01,-21.48,28.26,11.6412405.00,-8.30,4.93,-2.51,0.13,-0.19,-0.00,-21.48,28.26,11.6412417.00,-8.30,4.78,-2.56,0.01,-0.08,-0.03,-21.48,28.26,11.6412429.00,-8.30,4.78,-2.56,0.01,-0.08,-0.03,-21.48,28.26,11.6412442.00,-8.42,4.89,-2.32,-0.19,-0.07,-0.03,-21.48,28.26,11.6412454.00,-8.42,4.89,-2.32,-0.19,-0.07,-0.03,-21.48,28.26,11.6412465.00,-8.77,5.05,-1.63,-0.29,0.05,-0.09,-21.48,28.26,11.6412476.00,-8.35,4.96,-2.52,-0.25,0.24,-0.17,-21.48,28.26,11.6412490.00,-8.35,4.96,-2.52,-0.25,0.24,-0.17,-21.48,28.26,11.6412502.00,-7.96,5.78,-2.56,-0.18,0.12,-0.10,-21.89,26.90,11.9512514.00,-7.96,5.78,-2.56,-0.18,0.12,-0.10,-21.89,26.90,11.9512526.00,-8.31,5.12,-2.81,0.08,-0.02,-0.06,-21.89,26.90,11.9512539.00,-8.17,4.53,-3.43,0.22,-0.21,-0.02,-21.89,26.90,11.9512550.00,-8.17,4.53,-3.43,0.22,-0.21,-0.02,-21.89,26.90,11.9512560.00,-8.33,5.18,-1.94,0.10,-0.43,0.06,-21.89,26.90,11.9512572.00,-8.33,5.18,-1.94,0.10,-0.43,0.06,-21.89,26.90,11.9512585.00,-8.38,4.63,-2.09,0.09,-0.30,0.00,-21.89,26.90,11.9512596.00,-8.34,4.61,-2.47,-0.03,-0.14,-0.02,-21.89,26.90,11.9512607.00,-8.34,4.61,-2.47,-0.03,-0.14,-0.02,-21.89,26.90,11.9512619.00,-8.60,4.98,-1.98,-0.21,-0.09,-0.01,-21.89,26.90,11.9512632.00,-8.60,4.98,-1.98,-0.21,-0.09,-0.01,-21.89,26.90,11.9512644.00,-8.59,4.35,-1.65,-0.29,0.06,-0.11,-22.51,29.45,11.1712656.00,-8.70,4.97,-1.84,-0.30,0.24,-0.17,-22.51,29.45,11.1712667.00,-8.70,4.97,-1.84,-0.30,0.24,-0.17,-22.51,29.45,11.1712679.00,-7.81,5.80,-2.51,-0.15,0.16,-0.12,-22.51,29.45,11.1712692.00,-7.81,5.80,-2.51,-0.15,0.16,-0.12,-22.51,29.45,11.1712703.00,-8.30,4.76,-3.11,0.17,-0.02,-0.05,-22.51,29.45,11.1712715.00,-8.09,3.80,-3.60,0.27,-0.27,0.06,-22.51,29.45,11.1712727.00,-8.09,3.80,-3.60,0.27,-0.27,0.06,-22.51,29.45,11.1712740.00,-8.92,5.52,-1.23,0.10,-0.50,0.23,-22.51,29.45,11.1712752.00,-8.92,5.52,-1.23,0.10,-0.50,0.23,-22.51,29.45,11.1712764.00,-8.74,4.99,-1.82,0.08,-0.26,0.10,-21.07,26.90,11.6412776.00,-9.33,4.00,-1.49,-0.04,-0.01,0.02,-21.07,26.90,11.6412789.00,-9.33,4.00,-1.49,-0.04,-0.01,0.02,-21.07,26.90,11.6412801.00,-7.87,4.79,-2.62,-0.21,0.24,0.09,-21.07,26.90,11.6412813.00,-7.87,4.79,-2.62,-0.21,0.24,0.09,-21.07,26.90,11.6412825.00,-7.12,5.89,-3.16,-0.24,0.17,-0.03,-21.07,26.90,11.6412839.00,-7.00,6.18,-3.13,-0.15,-0.01,-0.21,-21.07,26.90,11.6412851.00,-7.00,6.18,-3.13,-0.15,-0.01,-0.21,-21.07,26.90,11.6412862.00,-8.69,5.06,-2.51,-0.13,-0.12,-0.23,-21.07,26.90,11.6412873.00,-8.69,5.06,-2.51,-0.13,-0.12,-0.23,-21.07,26.90,11.6412887.00,-8.27,4.92,-1.76,-0.13,-0.12,-0.06,-22.72,27.24,11.0112899.00,-8.21,5.19,-2.47,0.04,-0.13,-0.03,-22.72,27.24,11.0112910.00,-8.21,5.19,-2.47,0.04,-0.13,-0.03,-22.72,27.24,11.0112920.00,-8.39,4.74,-2.17,0.20,-0.16,-0.01,-22.72,27.24,11.0112934.00,-8.39,4.74,-2.17,0.20,-0.16,-0.01,-22.72,27.24,11.0112946.00,-8.46,4.44,-2.54,0.25,-0.13,0.08,-22.72,27.24,11.0112958.00,-8.21,4.18,-3.04,0.10,-0.20,0.13,-22.72,27.24,11.0112970.00,-8.21,4.18,-3.04,0.10,-0.20,0.13,-22.72,27.24,11.0112984.00,-8.55,4.08,-2.71,-0.11,-0.32,0.15,-22.72,27.24,11.0112996.00,-8.80,4.87,-2.35,-0.40,-0.33,0.12,-21.48,27.92,11.3313007.00,-8.80,4.87,-2.35,-0.40,-0.33,0.12,-21.48,27.92,11.3313018.00,-8.77,5.27,-1.79,-0.61,-0.27,0.01,-21.48,27.92,11.3313032.00,-8.77,5.27,-1.79,-0.61,-0.27,0.01,-21.48,27.92,11.3313044.00,-8.55,6.21,-0.17,-0.60,-0.08,-0.11,-21.48,27.92,11.3313054.00,-8.55,6.21,-0.17,-0.60,-0.08,-0.11,-21.48,27.92,11.3313066.00,-8.22,5.29,-2.21,-0.12,0.31,-0.23,-21.48,27.92,11.3313070.00,-8.22,5.29,-2.21,-0.12,0.31,-0.23,-21.48,27.92,11.3313150.00,-8.56,4.09,-2.72,0.15,-0.27,0.14,-21.07,27.92,11.6413227.00,-9.00,4.77,-2.10,-0.16,0.51,0.05,-21.07,27.92,11.6413307.00,-10.20,3.07,-2.74,0.42,0.27,-0.60,-22.72,27.58,12.5813396.00,-7.97,4.87,-2.02,0.16,-0.67,-0.03,-22.10,28.43,10.5513408.00,-7.97,4.87,-2.02,0.16,-0.67,-0.03,-22.10,28.43,10.5513420.00,-8.52,5.10,-2.39,0.20,-0.53,0.01,-22.10,28.43,10.5513433.00,-8.52,5.10,-2.39,0.20,-0.53,0.01,-22.10,28.43,10.5513447.00,-8.43,4.00,-2.77,0.30,-0.16,-0.14,-22.10,28.43,10.5513459.00,-8.41,3.54,-2.46,0.07,-0.00,-0.16,-22.10,28.43,10.5513470.00,-8.41,3.54,-2.46,0.07,-0.00,-0.16,-22.10,28.43,10.5513482.00,-8.97,4.79,-0.89,-0.28,0.15,-0.09,-22.10,28.43,10.5513494.00,-8.97,4.79,-0.89,-0.28,0.15,-0.09,-22.10,28.43,10.5513506.00,-8.64,3.72,-1.52,-0.09,0.56,-0.28,-24.58,27.07,11.1713518.00,-9.12,4.35,-2.96,-0.09,0.57,-0.33,-24.58,27.07,11.1713529.00,-9.12,4.35,-2.96,-0.09,0.57,-0.33,-24.58,27.07,11.1713543.00,-8.41,4.15,-3.44,-0.24,0.33,-0.29,-24.58,27.07,11.1713555.00,-8.41,4.15,-3.44,-0.24,0.33,-0.29,-24.58,27.07,11.1713567.00,-9.95,4.47,-1.98,-0.23,0.08,-0.09,-24.58,27.07,11.1713578.00,-8.34,4.61,-2.31,-0.17,0.11,0.31,-24.58,27.07,11.1713590.00,-8.34,4.61,-2.31,-0.17,0.11,0.31,-24.58,27.07,11.1713602.00,-6.56,5.38,-3.59,-0.10,0.10,0.30,-24.58,27.07,11.1713614.00,-6.56,5.38,-3.59,-0.10,0.10,0.30,-24.58,27.07,11.1713625.00,-6.24,6.15,-3.73,-0.02,-0.17,0.08,-24.58,27.07,11.1713636.00,-7.31,6.07,-3.21,0.13,-0.47,-0.22,-23.96,28.60,10.7013650.00,-7.31,6.07,-3.21,0.13,-0.47,-0.22,-23.96,28.60,10.7013662.00,-10.59,2.85,-1.57,0.21,-0.60,-0.45,-23.96,28.60,10.7013673.00,-10.59,2.85,-1.57,0.21,-0.60,-0.45,-23.96,28.60,10.7013685.00,-8.93,2.70,-1.96,0.15,-0.33,-0.17,-23.96,28.60,10.7013699.00,-8.72,4.25,-2.14,0.03,-0.29,-0.01,-23.96,28.60,10.7013711.00,-8.72,4.25,-2.14,0.03,-0.29,-0.01,-23.96,28.60,10.7013723.00,-8.70,4.42,-1.90,-0.02,-0.32,0.04,-23.96,28.60,10.7013734.00,-8.70,4.42,-1.90,-0.02,-0.32,0.04,-23.96,28.60,10.7013748.00,-8.93,3.89,-2.54,-0.00,-0.15,-0.01,-23.96,28.60,10.7013760.00,-9.29,4.97,-0.91,-0.10,0.02,-0.06,-24.58,27.41,10.8613772.00,-9.29,4.97,-0.91,-0.10,0.02,-0.06,-24.58,27.41,10.8613783.00,-9.42,3.62,-2.71,0.03,0.55,-0.13,-24.58,27.41,10.8613796.00,-6.60,4.63,-2.95,-0.04,0.68,0.10,-24.58,27.41,10.8613808.00,-6.60,4.63,-2.95,-0.04,0.68,0.10,-24.58,27.41,10.8613820.00,-6.82,6.27,-3.79,-0.02,0.51,0.03,-24.58,27.41,10.8613830.00,-6.82,6.27,-3.79,-0.02,0.51,0.03,-24.58,27.41,10.8613845.00,-7.24,5.82,-3.53,0.17,0.07,-0.31,-24.58,27.41,10.8613855.00,-10.68,3.53,-1.34,0.21,-0.26,-0.36,-24.58,27.41,10.8613866.00,-10.68,3.53,-1.34,0.21,-0.26,-0.36,-24.58,27.41,10.8613878.00,-9.10,2.36,-3.30,0.05,-0.08,-0.08,-25.61,28.94,9.4513892.00,-9.10,2.36,-3.30,0.05,-0.08,-0.08,-25.61,28.94,9.4513904.00,-9.35,5.43,-1.88,-0.17,-0.18,0.10,-25.61,28.94,9.4513915.00,-10.56,4.31,-1.34,-0.01,-0.11,0.04,-25.61,28.94,9.4513927.00,-10.56,4.31,-1.34,-0.01,-0.11,0.04,-25.61,28.94,9.4513940.00,-8.03,3.57,-2.65,0.07,0.13,0.35,-25.61,28.94,9.4513950.00,-8.03,3.57,-2.65,0.07,0.13,0.35,-25.61,28.94,9.4513962.00,-6.74,5.47,-4.13,-0.11,0.03,0.30,-25.61,28.94,9.4513974.00,-6.74,5.47,-4.13,-0.11,0.03,0.30,-25.61,28.94,9.4513988.00,-6.52,5.89,-3.57,-0.13,-0.23,0.04,-25.61,28.94,9.4514000.00,-6.44,5.86,-3.87,0.03,-0.42,-0.21,-25.41,26.05,10.8614012.00,-6.44,5.86,-3.87,0.03,-0.42,-0.21,-25.41,26.05,10.8614024.00,-9.01,4.26,-2.48,0.15,-0.60,-0.52,-25.41,26.05,10.8614037.00,-9.83,1.91,-1.70,0.02,-0.35,-0.28,-25.41,26.05,10.8614049.00,-9.83,1.91,-1.70,0.02,-0.35,-0.28,-25.41,26.05,10.8614061.00,-9.42,4.15,-1.47,-0.34,-0.04,-0.00,-25.41,26.05,10.8614072.00,-9.42,4.15,-1.47,-0.34,-0.04,-0.00,-25.41,26.05,10.8614085.00,-8.75,4.82,-2.18,-0.41,0.17,-0.08,-25.41,26.05,10.8614097.00,-8.56,4.83,-1.90,-0.37,0.19,-0.19,-25.41,26.05,10.8614109.00,-8.56,4.83,-1.90,-0.37,0.19,-0.19,-25.41,26.05,10.8614120.00,-8.39,5.13,-2.50,-0.21,0.10,-0.16,-25.41,26.05,10.8614134.00,-8.39,5.13,-2.50,-0.21,0.10,-0.16,-25.41,26.05,10.8614146.00,-8.74,4.53,-2.45,-0.03,-0.03,-0.11,-25.61,28.26,11.3314158.00,-8.35,3.46,-3.51,0.05,-0.14,-0.05,-25.61,28.26,11.3314170.00,-8.35,3.46,-3.51,0.05,-0.14,-0.05,-25.61,28.26,11.3314183.00,-8.80,4.15,-2.10,-0.14,-0.37,0.07,-25.61,28.26,11.3314194.00,-8.80,4.15,-2.10,-0.14,-0.37,0.07,-25.61,28.26,11.3314206.00,-8.78,4.10,-2.68,-0.22,-0.30,0.04,-25.61,28.26,11.3314218.00,-8.73,4.03,-2.19,-0.34,-0.26,0.01,-25.61,28.26,11.3314231.00,-8.73,4.03,-2.19,-0.34,-0.26,0.01,-25.61,28.26,11.3314243.00,-8.84,4.02,-2.05,-0.43,-0.22,0.03,-25.61,28.26,11.3314254.00,-8.84,4.02,-2.05,-0.43,-0.22,0.03,-25.61,28.26,11.3314266.00,-8.65,4.23,-2.11,-0.52,-0.19,0.03,-25.61,26.56,10.7014280.00,-9.06,4.90,-1.39,-0.50,-0.10,0.03,-25.61,26.56,10.7014292.00,-9.06,4.90,-1.39,-0.50,-0.10,0.03,-25.61,26.56,10.7014304.00,-8.92,4.27,-1.09,-0.43,0.08,-0.04,-25.61,26.56,10.7014316.00,-8.27,4.95,-3.30,-0.29,0.20,-0.04,-25.61,26.56,10.7014329.00,-8.27,4.95,-3.30,-0.29,0.20,-0.04,-25.61,26.56,10.7014341.00,-8.61,5.13,-1.28,-0.13,0.01,0.01,-25.61,26.56,10.7014352.00,-8.61,5.13,-1.28,-0.13,0.01,0.01,-25.61,26.56,10.7014364.00,-8.53,4.07,-2.51,-0.02,0.03,-0.00,-25.61,26.56,10.7014376.00,-8.69,4.92,-1.88,-0.09,-0.09,0.06,-25.20,27.58,12.8914388.00,-8.69,4.92,-1.88,-0.09,-0.09,0.06,-25.20,27.58,12.8914400.00,-8.72,4.48,-2.77,-0.14,-0.19,0.02,-25.20,27.58,12.8914412.00,-8.72,4.48,-2.77,-0.14,-0.19,0.02,-25.20,27.58,12.8914424.00,-8.80,4.40,-1.69,-0.32,-0.40,-0.01,-25.20,27.58,12.8914436.00,-8.49,4.54,-2.25,-0.33,-0.46,-0.04,-25.20,27.58,12.8914447.00,-8.49,4.54,-2.25,-0.33,-0.46,-0.04,-25.20,27.58,12.8914459.00,-8.89,5.42,-0.65,-0.24,-0.40,-0.05,-25.20,27.58,12.8914471.00,-8.89,5.42,-0.65,-0.24,-0.40,-0.05,-25.20,27.58,12.8914484.00,-8.19,4.09,-2.82,-0.08,-0.24,-0.09,-25.20,27.58,12.8914496.00,-8.55,4.41,-1.36,0.01,-0.23,-0.03,-25.20,28.60,14.1414508.00,-8.55,4.41,-1.36,0.01,-0.23,-0.03,-25.20,28.60,14.1414520.00,-8.02,3.70,-2.05,0.20,-0.06,0.08,-25.20,28.60,14.1414533.00,-8.02,3.70,-2.05,0.20,-0.06,0.08,-25.20,28.60,14.1414545.00,-8.97,4.04,-1.12,0.26,-0.00,0.24,-25.20,28.60,14.1414557.00,-9.46,4.27,-0.93,0.22,0.18,0.25,-25.20,28.60,14.1414568.00,-9.46,4.27,-0.93,0.22,0.18,0.25,-25.20,28.60,14.1414581.00,-10.28,5.09,-0.57,0.15,0.30,0.15,-25.20,28.60,14.1414593.00,-10.28,5.09,-0.57,0.15,0.30,0.15,-25.20,28.60,14.1414605.00,-12.13,2.64,-1.11,-0.10,0.52,0.04,-25.20,28.60,14.1414617.00,-8.72,5.30,-2.19,-0.50,0.70,0.25,-24.37,27.58,13.2014630.00,-8.72,5.30,-2.19,-0.50,0.70,0.25,-24.37,27.58,13.2014640.00,-7.71,6.19,-2.56,-0.47,0.68,-0.13,-24.37,27.58,13.2014652.00,-7.71,6.19,-2.56,-0.47,0.68,-0.13,-24.37,27.58,13.2014664.00,-9.45,0.04,-2.25,-0.24,0.59,-0.74,-24.37,27.58,13.2014677.00,-7.57,4.10,-3.28,-0.40,0.53,-0.23,-24.37,27.58,13.2014689.00,-7.57,4.10,-3.28,-0.40,0.53,-0.23,-24.37,27.58,13.2014701.00,-5.15,4.60,-3.21,-0.18,0.28,0.04,-24.37,27.58,13.2014712.00,-5.15,4.60,-3.21,-0.18,0.28,0.04,-24.37,27.58,13.2014726.00,-4.83,3.90,-3.98,0.18,-0.09,0.31,-24.37,27.58,13.2014738.00,-5.82,9.29,-4.20,0.38,-0.51,1.01,-24.37,27.58,13.2014748.00,-5.82,9.29,-4.20,0.38,-0.51,1.01,-24.37,27.58,13.2014760.00,-9.20,6.69,-1.42,0.67,-0.74,0.80,-23.75,28.09,12.1114773.00,-9.20,6.69,-1.42,0.67,-0.74,0.80,-23.75,28.09,12.1114785.00,-9.62,2.78,-3.11,0.93,-0.45,0.73,-23.75,28.09,12.1114796.00,-9.88,3.10,-1.92,0.83,-0.43,1.08,-23.75,28.09,12.1114808.00,-9.88,3.10,-1.92,0.83,-0.43,1.08,-23.75,28.09,12.1114812.00,-9.88,3.10,-1.92,0.83,-0.43,1.08,-23.75,28.09,12.1114890.00,-8.29,7.25,-1.34,0.85,-0.40,0.31,-21.48,30.64,10.3914969.00,-7.54,5.49,-2.92,-0.02,0.04,-0.27,-21.48,30.64,10.3915047.00,-7.60,5.84,-2.69,-0.25,-0.02,-0.28,-20.45,29.45,8.0415138.00,-7.49,5.93,-2.98,-0.09,0.01,-0.03,-22.72,30.64,8.8315150.00,-7.49,5.93,-2.98,-0.09,0.01,-0.03,-22.72,30.64,8.8315162.00,-8.01,5.26,-2.68,-0.00,-0.05,-0.10,-22.72,30.64,8.8315173.00,-8.01,5.26,-2.68,-0.00,-0.05,-0.10,-22.72,30.64,8.8315186.00,-8.55,4.76,-2.41,0.02,-0.05,-0.11,-22.72,30.64,8.8315198.00,-8.49,4.76,-2.44,-0.00,0.00,-0.05,-22.72,30.64,8.8315210.00,-8.49,4.76,-2.44,-0.00,0.00,-0.05,-22.72,30.64,8.8315222.00,-8.15,5.12,-2.75,-0.03,0.03,-0.02,-22.72,30.64,8.8315233.00,-8.15,5.12,-2.75,-0.03,0.03,-0.02,-22.72,30.64,8.8315247.00,-7.77,5.62,-2.76,-0.05,-0.00,-0.06,-22.72,30.64,8.8315259.00,-8.02,5.29,-2.66,-0.01,-0.04,-0.13,-22.72,28.94,10.0815270.00,-8.02,5.29,-2.66,-0.01,-0.04,-0.13,-22.72,28.94,10.0815280.00,-8.37,4.85,-2.60,0.01,-0.05,-0.15,-22.72,28.94,10.0815294.00,-8.37,4.85,-2.60,0.01,-0.05,-0.15,-22.72,28.94,10.0815306.00,-8.39,4.78,-2.53,-0.03,-0.04,-0.10,-22.72,28.94,10.0815318.00,-8.22,5.13,-2.64,-0.06,-0.03,-0.06,-22.72,28.94,10.0815329.00,-8.22,5.13,-2.64,-0.06,-0.03,-0.06,-22.72,28.94,10.0815343.00,-8.20,5.15,-2.56,-0.05,-0.05,-0.06,-22.72,28.94,10.0815355.00,-8.20,5.15,-2.56,-0.05,-0.05,-0.06,-22.72,28.94,10.0815367.00,-8.16,5.18,-2.60,-0.01,-0.05,-0.08,-22.72,28.94,10.0815378.00,-8.18,5.04,-2.71,-0.01,-0.04,-0.12,-23.75,29.11,9.2915391.00,-8.18,5.04,-2.71,-0.01,-0.04,-0.12,-23.75,29.11,9.2915403.00,-8.27,4.88,-2.62,-0.02,-0.04,-0.13,-23.75,29.11,9.2915415.00,-8.27,4.88,-2.62,-0.02,-0.04,-0.13,-23.75,29.11,9.2915426.00,-8.05,5.31,-2.72,-0.05,-0.06,-0.15,-23.75,29.11,9.2915440.00,-8.76,4.75,-2.31,-0.04,-0.09,-0.19,-23.75,29.11,9.2915452.00,-8.76,4.75,-2.31,-0.04,-0.09,-0.19,-23.75,29.11,9.2915464.00,-8.34,4.60,-2.69,-0.07,-0.06,-0.12,-23.75,29.11,9.2915475.00,-8.34,4.60,-2.69,-0.07,-0.06,-0.12,-23.75,29.11,9.2915488.00,-8.31,5.16,-2.58,-0.09,-0.08,-0.08,-23.75,29.11,9.2915500.00,-8.38,5.45,-2.63,-0.13,-0.09,-0.15,-22.93,28.77,10.2315512.00,-8.38,5.45,-2.63,-0.13,-0.09,-0.15,-22.93,28.77,10.2315524.00,-8.34,4.95,-2.72,-0.12,-0.11,-0.22,-22.93,28.77,10.2315537.00,-8.38,4.91,-2.59,-0.12,-0.12,-0.21,-22.93,28.77,10.2315548.00,-8.38,4.91,-2.59,-0.12,-0.12,-0.21,-22.93,28.77,10.2315560.00,-8.39,4.62,-2.63,-0.09,-0.13,-0.20,-22.93,28.77,10.2315572.00,-8.39,4.62,-2.63,-0.09,-0.13,-0.20,-22.93,28.77,10.2315585.00,-8.38,4.40,-2.55,-0.07,-0.14,-0.16,-22.93,28.77,10.2315596.00,-8.38,4.40,-2.55,-0.07,-0.14,-0.16,-22.93,28.77,10.2315607.00,-8.40,4.81,-2.59,-0.07,-0.15,-0.09,-22.93,28.77,10.2315619.00,-8.44,5.30,-2.33,-0.07,-0.16,-0.09,-24.17,29.11,10.8615632.00,-8.44,5.30,-2.33,-0.07,-0.16,-0.09,-24.17,29.11,10.8615643.00,-8.51,5.26,-2.37,0.00,-0.15,-0.17,-24.17,29.11,10.8615655.00,-8.51,5.26,-2.37,0.00,-0.15,-0.17,-24.17,29.11,10.8615667.00,-8.45,4.18,-2.30,0.09,-0.11,-0.23,-24.17,29.11,10.8615680.00,-8.44,3.94,-2.36,0.08,-0.10,-0.15,-24.17,29.11,10.8615693.00,-8.44,3.94,-2.36,0.08,-0.10,-0.15,-24.17,29.11,10.8615705.00,-8.41,4.15,-2.97,0.02,-0.10,-0.02,-24.17,29.11,10.8615717.00,-8.73,7.01,-2.08,-0.21,-0.18,-0.01,-24.17,29.11,10.8615730.00,-8.73,7.01,-2.08,-0.21,-0.18,-0.01,-24.17,29.11,10.8615741.00,-8.59,5.58,-2.40,-0.07,-0.16,-0.33,-24.17,29.11,10.8615753.00,-8.59,5.58,-2.40,-0.07,-0.16,-0.33,-24.17,29.11,10.8615765.00,-8.48,3.65,-2.23,0.04,-0.15,-0.47,-25.41,28.09,9.2915778.00,-8.41,2.28,-2.25,-0.03,-0.13,-0.31,-25.41,28.09,9.2915790.00,-8.41,2.28,-2.25,-0.03,-0.13,-0.31,-25.41,28.09,9.2915802.00,-8.55,3.74,-2.20,-0.31,-0.15,0.02,-25.41,28.09,9.2915814.00,-8.55,3.74,-2.20,-0.31,-0.15,0.02,-25.41,28.09,9.2915828.00,-8.76,5.97,-2.13,-0.48,-0.16,0.13,-25.41,28.09,9.2915840.00,-8.69,5.37,-1.88,-0.38,-0.13,-0.06,-25.41,28.09,9.2915852.00,-8.69,5.37,-1.88,-0.38,-0.13,-0.06,-25.41,28.09,9.2915864.00,-8.46,2.96,-1.98,-0.15,-0.07,-0.14,-25.41,28.09,9.2915877.00,-8.39,2.53,-2.21,-0.08,-0.04,0.12,-24.99,28.77,12.1115889.00,-8.39,2.53,-2.21,-0.08,-0.04,0.12,-24.99,28.77,12.1115901.00,-8.62,4.90,-2.04,-0.15,-0.04,0.41,-24.99,28.77,12.1115912.00,-8.62,4.90,-2.04,-0.15,-0.04,0.41,-24.99,28.77,12.1115926.00,-8.64,5.61,-2.05,-0.07,-0.01,0.38,-24.99,28.77,12.1115937.00,-8.52,4.67,-1.80,0.03,0.02,0.26,-24.99,28.77,12.1115948.00,-8.52,4.67,-1.80,0.03,0.02,0.26,-24.99,28.77,12.1115960.00,-8.41,4.23,-2.11,0.09,0.08,0.28,-24.99,28.77,12.1115973.00,-8.41,4.23,-2.11,0.09,0.08,0.28,-24.99,28.77,12.1115985.00,-8.51,5.68,-2.41,0.08,0.09,0.34,-24.99,28.77,12.1115996.00,-8.51,5.87,-2.41,0.12,0.06,0.22,-23.96,29.96,11.0116008.00,-8.51,5.87,-2.41,0.12,0.06,0.22,-23.96,29.96,11.0116021.00,-8.38,4.69,-2.53,0.12,0.03,0.08,-23.96,29.96,11.0116032.00,-8.38,4.69,-2.53,0.12,0.03,0.08,-23.96,29.96,11.0116043.00,-8.40,4.70,-2.29,0.02,-0.02,0.09,-23.96,29.96,11.0116055.00,-8.40,4.70,-2.29,0.02,-0.02,0.09,-23.96,29.96,11.0116068.00,-8.39,4.94,-2.28,-0.00,-0.03,0.12,-23.96,29.96,11.0116079.00,-8.40,5.40,-2.41,0.00,-0.03,0.12,-23.96,29.96,11.0116090.00,-8.40,5.40,-2.41,0.00,-0.03,0.12,-23.96,29.96,11.0116102.00,-8.38,5.18,-2.45,-0.01,-0.05,0.06,-23.96,29.96,11.0116115.00,-8.38,5.18,-2.45,-0.01,-0.05,0.06,-23.96,29.96,11.0116126.00,-8.37,4.85,-2.27,-0.04,-0.07,0.02,-24.79,29.62,10.7016138.00,-8.37,4.91,-2.09,-0.03,-0.06,0.04,-24.79,29.62,10.7016150.00,-8.37,4.91,-2.09,-0.03,-0.06,0.04,-24.79,29.62,10.7016163.00,-8.38,5.13,-2.18,0.03,-0.02,0.05,-24.79,29.62,10.7016175.00,-8.38,5.13,-2.18,0.03,-0.02,0.05,-24.79,29.62,10.7016187.00,-8.37,5.20,-2.31,0.06,-0.01,0.03,-24.79,29.62,10.7016198.00,-8.36,5.09,-2.30,0.04,-0.01,-0.01,-24.79,29.62,10.7016209.00,-8.36,5.09,-2.30,0.04,-0.01,-0.01,-24.79,29.62,10.7016223.00,-8.32,4.77,-2.38,0.04,-0.01,-0.02,-24.79,29.62,10.7016235.00,-8.32,4.77,-2.38,0.04,-0.01,-0.02,-24.79,29.62,10.7016247.00,-8.35,4.94,-2.38,0.01,-0.02,0.01,-24.79,29.62,10.7016258.00,-8.35,5.08,-2.34,0.01,-0.02,0.02,-24.58,30.47,10.5516271.00,-8.35,5.08,-2.34,0.01,-0.02,0.02,-24.58,30.47,10.5516281.00,-8.35,5.16,-2.22,-0.00,-0.02,0.00,-24.58,30.47,10.5516293.00,-8.35,5.16,-2.22,-0.00,-0.02,0.00,-24.58,30.47,10.5516305.00,-8.32,4.86,-2.34,0.02,-0.01,-0.02,-24.58,30.47,10.5516318.00,-8.32,4.90,-2.44,0.05,-0.01,0.00,-24.58,30.47,10.5516329.00,-8.32,4.90,-2.44,0.05,-0.01,0.00,-24.58,30.47,10.5516341.00,-8.07,4.91,-2.42,0.10,-0.01,0.02,-24.58,30.47,10.5516353.00,-8.07,4.91,-2.42,0.10,-0.01,0.02,-24.58,30.47,10.5516366.00,-7.87,5.74,-2.32,0.22,0.01,0.11,-24.58,30.47,10.5516378.00,-8.39,5.06,-2.81,0.40,-0.00,0.14,-23.75,29.79,10.8616390.00,-8.39,5.06,-2.81,0.40,-0.00,0.14,-23.75,29.79,10.8616401.00,-8.07,4.25,-2.77,0.22,-0.20,0.18,-23.75,29.79,10.8616414.00,-8.07,4.25,-2.77,0.22,-0.20,0.18,-23.75,29.79,10.8616426.00,-8.50,3.76,-2.73,0.04,-0.24,0.17,-23.75,29.79,10.8616437.00,-8.67,4.63,-2.16,-0.16,-0.35,0.19,-23.75,29.79,10.8616449.00,-8.67,4.63,-2.16,-0.16,-0.35,0.19,-23.75,29.79,10.8616462.00,-8.55,5.04,-2.80,-0.36,-0.35,0.13,-23.75,29.79,10.8616473.00,-8.55,5.04,-2.80,-0.36,-0.35,0.13,-23.75,29.79,10.8616485.00,-9.12,4.86,-2.22,-0.71,-0.30,-0.01,-23.75,29.79,10.8616497.00,-8.71,5.38,-1.18,-1.01,-0.10,-0.16,-20.65,29.62,11.9516510.00,-8.71,5.38,-1.18,-1.01,-0.10,-0.16,-20.65,29.62,11.9516522.00,-8.28,6.15,-2.22,-0.81,0.32,-0.26,-20.65,29.62,11.9516534.00,-8.28,6.15,-2.22,-0.81,0.32,-0.26,-20.65,29.62,11.9516546.00,-7.65,5.90,-0.66,-0.60,0.40,-0.29,-20.65,29.62,11.9516559.00,-7.55,5.82,-2.39,-0.21,0.61,-0.30,-20.65,29.62,11.9516571.00,-7.55,5.82,-2.39,-0.21,0.61,-0.30,-20.65,29.62,11.9516583.00,-7.87,5.64,-2.26,0.14,0.58,-0.19,-20.65,29.62,11.9516594.00,-7.87,5.64,-2.26,0.14,0.58,-0.19,-20.65,29.62,11.9516608.00,-7.95,4.96,-2.59,0.29,0.31,-0.09,-20.65,29.62,11.9516620.00,-8.17,4.91,-2.48,0.34,0.07,0.01,-22.93,30.13,11.1716632.00,-8.17,4.91,-2.48,0.34,0.07,0.01,-22.93,30.13,11.1716643.00,-8.71,5.15,-3.47,0.26,-0.27,0.20,-22.93,30.13,11.1716656.00,-8.71,5.15,-3.47,0.26,-0.27,0.20,-22.93,30.13,11.1716668.00,-8.56,4.69,-3.22,0.07,-0.60,0.22,-22.93,30.13,11.1716680.00,-8.50,4.12,-1.81,0.01,-0.64,0.18,-22.93,30.13,11.1716691.00,-8.50,4.12,-1.81,0.01,-0.64,0.18,-22.93,30.13,11.1716704.00,-8.42,4.83,-2.08,-0.07,-0.45,0.17,-22.93,30.13,11.1716716.00,-8.42,4.83,-2.08,-0.07,-0.45,0.17,-22.93,30.13,11.1716728.00,-8.58,5.34,-1.13,-0.15,-0.31,0.08,-22.93,30.13,11.1716739.00,-8.51,4.77,-1.95,-0.12,-0.05,0.02,-22.93,30.13,11.1716751.00,-8.51,4.77,-1.95,-0.12,-0.05,0.02,-22.93,30.13,11.1716764.00,-9.30,4.54,-1.39,-0.18,0.14,0.02,-22.51,29.45,13.0516775.00,-9.30,4.54,-1.39,-0.18,0.14,0.02,-22.51,29.45,13.0516787.00,-8.03,4.90,-2.35,-0.15,0.31,0.15,-22.51,29.45,13.0516799.00,-7.24,6.12,-2.54,-0.20,0.21,0.09,-22.51,29.45,13.0516812.00,-7.24,6.12,-2.54,-0.20,0.21,0.09,-22.51,29.45,13.0516823.00,-7.25,6.06,-2.89,-0.07,0.06,-0.12,-22.51,29.45,13.0516835.00,-7.25,6.06,-2.89,-0.07,0.06,-0.12,-22.51,29.45,13.0516847.00,-7.64,5.73,-2.55,0.01,-0.11,-0.27,-22.51,29.45,13.0516860.00,-9.00,4.37,-2.41,0.01,-0.16,-0.28,-22.51,29.45,13.0516871.00,-9.00,4.37,-2.41,0.01,-0.16,-0.28,-22.51,29.45,13.0516883.00,-8.44,5.19,-1.98,-0.15,-0.14,-0.08,-23.13,29.28,13.2016895.00,-8.44,5.19,-1.98,-0.15,-0.14,-0.08,-23.13,29.28,13.2016908.00,-8.20,5.90,-1.66,-0.12,-0.13,-0.06,-23.13,29.28,13.2016920.00,-8.05,5.50,-1.99,0.08,-0.08,-0.14,-23.13,29.28,13.2016932.00,-8.05,5.50,-1.99,0.08,-0.08,-0.14,-23.13,29.28,13.2016943.00,-8.23,4.53,-1.85,0.31,-0.03,-0.12,-23.13,29.28,13.2016957.00,-8.46,3.80,-2.50,0.38,0.01,-0.02,-23.13,29.28,13.2016968.00,-8.46,3.80,-2.50,0.38,0.01,-0.02,-23.13,29.28,13.2016979.00,-9.14,5.23,-0.84,0.06,-0.28,0.13,-23.13,29.28,13.2016991.00,-9.14,5.23,-0.84,0.06,-0.28,0.13,-23.13,29.28,13.2017005.00,-8.52,4.38,-3.52,0.01,-0.16,0.05,-21.89,28.94,11.0117016.00,-8.52,4.38,-3.52,0.01,-0.16,0.05,-21.89,28.94,11.0117028.00,-8.35,4.78,-2.10,-0.34,-0.31,0.01,-21.89,28.94,11.0117040.00,-8.65,5.37,-1.52,-0.48,-0.25,-0.06,-21.89,28.94,11.0117053.00,-8.65,5.37,-1.52,-0.48,-0.25,-0.06,-21.89,28.94,11.0117063.00,-8.72,5.47,-1.56,-0.37,-0.02,-0.12,-21.89,28.94,11.0117075.00,-8.72,5.47,-1.56,-0.37,-0.02,-0.12,-21.89,28.94,11.0117087.00,-8.06,5.27,-3.37,-0.16,0.28,-0.19,-21.89,28.94,11.0117100.00,-8.38,6.05,-1.23,-0.15,0.17,-0.11,-21.89,28.94,11.0117112.00,-8.38,6.05,-1.23,-0.15,0.17,-0.11,-21.89,28.94,11.0117124.00,-8.16,5.16,-2.44,0.02,0.15,-0.12,-23.55,29.28,10.7017135.00,-8.16,5.16,-2.44,0.02,0.15,-0.12,-23.55,29.28,10.7017148.00,-8.25,4.67,-2.89,0.11,0.02,-0.05,-23.55,29.28,10.7017160.00,-8.43,5.11,-2.42,0.03,-0.24,0.04,-23.55,29.28,10.7017172.00,-8.43,5.11,-2.42,0.03,-0.24,0.04,-23.55,29.28,10.7017184.00,-8.38,4.41,-2.16,-0.09,-0.37,0.04,-23.55,29.28,10.7017198.00,-8.53,5.17,-1.80,-0.22,-0.31,0.01,-23.55,29.28,10.7017210.00,-8.53,5.17,-1.80,-0.22,-0.31,0.01,-23.55,29.28,10.7017221.00,-8.44,5.06,-1.51,-0.26,-0.17,-0.06,-23.55,29.28,10.7017233.00,-8.44,5.06,-1.51,-0.26,-0.17,-0.06,-23.55,29.28,10.7017247.00,-9.23,4.92,-0.79,-0.34,-0.03,-0.11,-23.55,29.28,10.7017258.00,-8.88,4.81,-1.41,-0.29,0.29,-0.25,-23.55,29.28,10.7017269.00,-8.88,4.81,-1.41,-0.29,0.29,-0.25,-23.55,29.28,10.7017281.00,-7.90,6.26,-1.80,-0.25,0.30,-0.23,-23.55,29.28,10.7017294.00,-7.90,6.26,-1.80,-0.25,0.30,-0.23,-23.55,29.28,10.7017306.00,-8.02,5.48,-2.60,0.02,0.17,-0.18,-23.55,29.28,10.7017317.00,-8.02,5.48,-2.60,0.02,0.17,-0.18,-23.55,29.28,10.7017328.00,-8.28,4.00,-3.08,0.10,-0.04,-0.11,-23.55,29.28,10.7017333.00,-8.28,4.00,-3.08,0.10,-0.04,-0.11,-23.55,29.28,10.7017410.00,-8.77,4.70,-0.83,-0.43,-0.22,-0.09,-24.99,28.77,13.0517489.00,-8.74,5.13,-2.38,0.19,-0.04,-0.13,-24.99,28.77,13.0517566.00,-8.12,4.37,-2.35,0.46,-0.02,-0.11,-22.51,28.43,13.3617658.00,-11.27,2.50,-2.67,-0.06,0.52,0.06,-22.93,28.43,11.8017670.00,-11.27,2.50,-2.67,-0.06,0.52,0.06,-22.93,28.43,11.8017680.00,-8.14,5.82,-2.11,-0.47,0.44,0.44,-22.93,28.43,11.8017692.00,-8.14,5.82,-2.11,-0.47,0.44,0.44,-22.93,28.43,11.8017704.00,-9.84,0.13,-1.04,-0.20,0.36,-0.40,-22.93,28.43,11.8017717.00,-9.84,0.13,-1.04,-0.20,0.36,-0.40,-22.93,28.43,11.8017728.00,-9.14,2.40,-2.54,-0.39,0.38,-0.25,-22.93,28.43,11.8017740.00,-5.58,5.32,-2.61,-0.56,0.31,0.14,-24.58,28.09,11.8017752.00,-5.58,5.32,-2.61,-0.56,0.31,0.14,-24.58,28.09,11.8017765.00,-4.19,6.06,-3.42,-0.21,0.22,0.24,-24.58,28.09,11.8017777.00,-5.51,8.50,-3.29,0.36,0.02,0.40,-24.58,28.09,11.8017789.00,-5.51,8.50,-3.29,0.36,0.02,0.40,-24.58,28.09,11.8017801.00,-7.77,10.09,-3.82,0.78,-0.10,0.45,-24.58,28.09,11.8017815.00,-7.77,10.09,-3.82,0.78,-0.10,0.45,-24.58,28.09,11.8017827.00,-8.44,5.07,-3.19,0.89,-0.20,0.11,-24.58,28.09,11.8017838.00,-9.49,3.18,-2.55,0.63,-0.27,0.10,-24.58,28.09,11.8017850.00,-9.49,3.18,-2.55,0.63,-0.27,0.10,-24.58,28.09,11.8017863.00,-10.10,2.85,-2.18,0.24,-0.24,0.11,-24.58,28.09,11.8017875.00,-10.10,2.85,-2.18,0.24,-0.24,0.11,-24.58,28.09,11.8017887.00,-8.71,4.54,-2.32,-0.15,-0.17,0.18,-24.37,28.94,10.7017898.00,-8.09,5.71,-2.20,-0.24,-0.16,0.12,-24.37,28.94,10.7017911.00,-8.09,5.71,-2.20,-0.24,-0.16,0.12,-24.37,28.94,10.7017923.00,-8.29,5.30,-2.34,-0.07,-0.11,-0.02,-24.37,28.94,10.7017935.00,-8.29,5.30,-2.34,-0.07,-0.11,-0.02,-24.37,28.94,10.7017947.00,-8.21,5.05,-2.59,0.03,-0.07,-0.06,-24.37,28.94,10.7017960.00,-8.79,4.83,-2.43,0.04,-0.05,-0.07,-24.37,28.94,10.7017972.00,-8.79,4.83,-2.43,0.04,-0.05,-0.07,-24.37,28.94,10.7017984.00,-8.44,4.70,-2.79,-0.06,-0.03,-0.05,-24.37,28.94,10.7017995.00,-8.44,4.70,-2.79,-0.06,-0.03,-0.05,-24.37,28.94,10.7018009.00,-8.70,4.75,-2.34,-0.17,-0.06,-0.08,-22.10,28.09,9.9218021.00,-8.51,4.72,-2.29,-0.24,-0.00,-0.10,-22.10,28.09,9.9218032.00,-8.51,4.72,-2.29,-0.24,-0.00,-0.10,-22.10,28.09,9.9218044.00,-8.57,4.97,-2.24,-0.31,0.07,-0.11,-22.10,28.09,9.9218056.00,-8.57,4.97,-2.24,-0.31,0.07,-0.11,-22.10,28.09,9.9218068.00,-8.52,4.30,-2.88,-0.31,0.13,-0.15,-22.10,28.09,9.9218080.00,-8.31,4.28,-2.77,-0.40,0.11,-0.11,-22.10,28.09,9.9218092.00,-8.31,4.28,-2.77,-0.40,0.11,-0.11,-22.10,28.09,9.9218105.00,-8.04,5.34,-2.19,-0.35,0.03,-0.07,-22.10,28.09,9.9218117.00,-8.04,5.34,-2.19,-0.35,0.03,-0.07,-22.10,28.09,9.9218128.00,-8.53,5.38,-2.59,-0.03,-0.07,-0.07,-23.13,29.62,11.0118140.00,-8.51,4.75,-3.12,0.13,-0.21,-0.07,-23.13,29.62,11.0118153.00,-8.51,4.75,-3.12,0.13,-0.21,-0.07,-23.13,29.62,11.0118164.00,-8.27,4.92,-1.75,0.02,-0.44,0.04,-23.13,29.62,11.0118176.00,-8.27,4.92,-1.75,0.02,-0.44,0.04,-23.13,29.62,11.0118188.00,-8.32,4.67,-2.92,0.10,-0.23,0.05,-23.13,29.62,11.0118201.00,-8.49,4.81,-2.23,-0.05,-0.13,0.02,-23.13,29.62,11.0118212.00,-8.49,4.81,-2.23,-0.05,-0.13,0.02,-23.13,29.62,11.0118224.00,-8.59,4.64,-1.86,-0.23,-0.08,-0.02,-23.13,29.62,11.0118235.00,-8.59,4.64,-1.86,-0.23,-0.08,-0.02,-23.13,29.62,11.0118247.00,-8.76,4.86,-1.78,-0.33,0.05,-0.04,-23.55,29.28,11.6418259.00,-8.29,3.84,-2.37,-0.32,0.21,-0.15,-23.55,29.28,11.6418271.00,-8.29,3.84,-2.37,-0.32,0.21,-0.15,-23.55,29.28,11.6418283.00,-8.31,6.09,-1.93,-0.34,0.08,-0.07,-23.55,29.28,11.6418295.00,-8.31,6.09,-1.93,-0.34,0.08,-0.07,-23.55,29.28,11.6418307.00,-8.36,5.01,-2.39,-0.02,-0.01,-0.06,-23.55,29.28,11.6418318.00,-8.39,4.58,-3.90,0.16,-0.15,-0.04,-23.55,29.28,11.6418330.00,-8.39,4.58,-3.90,0.16,-0.15,-0.04,-23.55,29.28,11.6418342.00,-8.33,4.72,-1.38,-0.00,-0.46,0.02,-23.55,29.28,11.6418355.00,-8.33,4.72,-1.38,-0.00,-0.46,0.02,-23.55,29.28,11.6418367.00,-8.45,4.45,-2.10,0.08,-0.27,0.01,-23.55,29.28,11.6418378.00,-8.45,4.80,-2.18,-0.01,-0.13,0.01,-24.37,27.58,11.3318389.00,-8.45,4.80,-2.18,-0.01,-0.13,0.01,-24.37,27.58,11.3318402.00,-8.53,5.00,-1.81,-0.15,-0.07,-0.00,-24.37,27.58,11.3318413.00,-8.53,5.00,-1.81,-0.15,-0.07,-0.00,-24.37,27.58,11.3318425.00,-8.81,4.76,-1.78,-0.23,0.01,-0.04,-24.37,27.58,11.3318437.00,-8.81,4.76,-1.78,-0.23,0.01,-0.04,-24.37,27.58,11.3318450.00,-8.67,3.91,-2.31,-0.27,0.19,-0.12,-24.37,27.58,11.3318462.00,-8.64,4.76,-2.05,-0.46,0.31,-0.11,-24.37,27.58,11.3318474.00,-8.64,4.76,-2.05,-0.46,0.31,-0.11,-24.37,27.58,11.3318486.00,-7.98,5.65,-2.55,-0.35,0.21,-0.09,-24.37,27.58,11.3318499.00,-8.61,5.37,-2.89,0.02,-0.03,-0.06,-24.17,28.77,11.4818510.00,-8.61,5.37,-2.89,0.02,-0.03,-0.06,-24.17,28.77,11.4818522.00,-8.42,4.60,-2.27,0.14,-0.32,-0.03,-24.17,28.77,11.4818533.00,-8.42,4.60,-2.27,0.14,-0.32,-0.03,-24.17,28.77,11.4818547.00,-8.68,4.62,-1.41,0.07,-0.46,0.07,-24.17,28.77,11.4818559.00,-8.63,4.22,-1.56,0.04,-0.32,0.13,-24.17,28.77,11.4818570.00,-8.63,4.22,-1.56,0.04,-0.32,0.13,-24.17,28.77,11.4818582.00,-9.84,4.02,-1.08,-0.06,-0.10,0.13,-24.17,28.77,11.4818595.00,-9.84,4.02,-1.08,-0.06,-0.10,0.13,-24.17,28.77,11.4818606.00,-8.74,4.34,-2.04,-0.22,0.23,0.28,-24.17,28.77,11.4818618.00,-7.02,6.02,-2.98,-0.41,0.31,0.20,-23.75,29.45,12.1118630.00,-7.02,6.02,-2.98,-0.41,0.31,0.20,-23.75,29.45,12.1118643.00,-6.62,6.76,-2.99,-0.29,0.10,-0.07,-23.75,29.45,12.1118655.00,-6.62,6.76,-2.99,-0.29,0.10,-0.07,-23.75,29.45,12.1118666.00,-7.65,5.93,-2.49,-0.03,-0.18,-0.35,-23.75,29.45,12.1118678.00,-8.86,4.21,-2.04,0.00,-0.24,-0.23,-23.75,29.45,12.1118691.00,-8.86,4.21,-2.04,0.00,-0.24,-0.23,-23.75,29.45,12.1118702.00,-8.94,4.71,-0.98,-0.01,-0.24,-0.04,-23.75,29.45,12.1118714.00,-8.94,4.71,-0.98,-0.01,-0.24,-0.04,-23.75,29.45,12.1118726.00,-8.63,5.05,-2.83,0.12,-0.19,-0.01,-23.75,29.45,12.1118738.00,-8.76,4.90,-1.92,0.02,-0.35,-0.02,-23.96,27.58,12.2618750.00,-8.76,4.90,-1.92,0.02,-0.35,-0.02,-23.96,27.58,12.2618762.00,-8.63,4.36,-2.38,-0.02,-0.27,-0.04,-23.96,27.58,12.2618774.00,-8.63,4.36,-2.38,-0.02,-0.27,-0.04,-23.96,27.58,12.2618786.00,-8.47,4.24,-2.04,-0.18,-0.27,-0.02,-23.96,27.58,12.2618798.00,-8.83,5.08,-1.32,-0.34,-0.23,-0.03,-23.96,27.58,12.2618810.00,-8.83,5.08,-1.32,-0.34,-0.23,-0.03,-23.96,27.58,12.2618823.00,-8.73,5.34,-1.14,-0.33,0.02,-0.09,-23.96,27.58,12.2618836.00,-8.73,5.34,-1.14,-0.33,0.02,-0.09,-23.96,27.58,12.2618848.00,-8.19,4.70,-1.06,-0.19,0.27,-0.17,-23.96,27.58,12.2618860.00,-8.05,5.27,-1.52,-0.14,0.40,-0.12,-23.96,27.58,12.2618872.00,-8.05,5.27,-1.52,-0.14,0.40,-0.12,-23.96,27.58,12.2618885.00,-8.31,5.71,-2.04,-0.03,0.41,-0.04,-25.41,29.45,12.7318897.00,-8.31,5.71,-2.04,-0.03,0.41,-0.04,-25.41,29.45,12.7318909.00,-8.27,4.52,-2.30,0.23,0.20,-0.04,-25.41,29.45,12.7318919.00,-8.64,4.10,-3.55,0.27,0.01,0.02,-25.41,29.45,12.7318933.00,-8.64,4.10,-3.55,0.27,0.01,0.02,-25.41,29.45,12.7318945.00,-9.17,4.24,-2.15,-0.05,-0.32,0.08,-25.41,29.45,12.7318957.00,-9.17,4.24,-2.15,-0.05,-0.32,0.08,-25.41,29.45,12.7318969.00,-8.56,4.04,-3.08,-0.33,-0.48,0.05,-25.41,29.45,12.7318983.00,-8.57,4.76,-0.99,-0.59,-0.64,0.04,-25.41,29.45,12.7318995.00,-8.57,4.76,-0.99,-0.59,-0.64,0.04,-25.41,29.45,12.7319006.00,-8.72,5.52,-2.09,-0.49,-0.37,-0.07,-23.13,29.28,13.8319018.00,-8.40,5.03,0.10,-0.42,-0.17,-0.23,-23.13,29.28,13.8319031.00,-8.40,5.03,0.10,-0.42,-0.17,-0.23,-23.13,29.28,13.8319042.00,-8.34,4.73,-1.74,-0.12,0.20,-0.24,-23.13,29.28,13.8319053.00,-8.34,4.73,-1.74,-0.12,0.20,-0.24,-23.13,29.28,13.8319064.00,-8.65,4.88,-1.65,-0.09,0.18,-0.16,-23.13,29.28,13.8319078.00,-8.40,4.81,-2.12,-0.19,0.08,-0.12,-23.13,29.28,13.8319090.00,-8.40,4.81,-2.12,-0.19,0.08,-0.12,-23.13,29.28,13.8319102.00,-8.45,5.44,-1.75,-0.22,-0.05,-0.06,-23.13,29.28,13.8319113.00,-8.45,5.44,-1.75,-0.22,-0.05,-0.06,-23.13,29.28,13.8319126.00,-8.34,4.77,-1.98,-0.07,-0.16,-0.07,-25.82,29.45,13.3619138.00,-8.91,4.46,-0.49,-0.03,-0.37,0.03,-25.82,29.45,13.3619150.00,-8.91,4.46,-0.49,-0.03,-0.37,0.03,-25.82,29.45,13.3619161.00,-8.86,4.22,-1.90,0.07,-0.19,0.03,-25.82,29.45,13.3619173.00,-8.86,4.22,-1.90,0.07,-0.19,0.03,-25.82,29.45,13.3619186.00,-9.58,5.29,-0.52,-0.09,-0.06,-0.02,-25.82,29.45,13.3619197.00,-9.58,5.29,-0.52,-0.09,-0.06,-0.02,-25.82,29.45,13.3619209.00,-8.73,4.29,-1.11,-0.13,0.27,-0.18,-25.82,29.45,13.3619221.00,-7.95,5.61,-2.17,-0.11,0.23,-0.12,-25.82,29.45,13.3619234.00,-7.95,5.61,-2.17,-0.11,0.23,-0.12,-25.82,29.45,13.3619246.00,-8.32,4.40,-1.88,0.06,-0.06,-0.05,-25.41,27.75,14.6119258.00,-9.60,3.33,-1.56,0.21,-0.26,0.19,-25.41,27.75,14.6119270.00,-9.60,3.33,-1.56,0.21,-0.26,0.19,-25.41,27.75,14.6119284.00,-11.61,3.08,-0.21,0.09,-0.17,0.58,-25.41,27.75,14.6119296.00,-11.61,3.08,-0.21,0.09,-0.17,0.58,-25.41,27.75,14.6119307.00,-8.76,5.38,-1.32,-0.17,0.21,0.80,-25.41,27.75,14.6119317.00,-8.76,5.38,-1.32,-0.17,0.21,0.80,-25.41,27.75,14.6119331.00,-7.69,5.60,-0.92,-0.34,0.25,0.28,-25.41,27.75,14.6119343.00,-9.63,2.91,-1.27,-0.26,0.26,-0.21,-25.41,27.75,14.6119353.00,-9.63,2.91,-1.27,-0.26,0.26,-0.21,-25.41,27.75,14.6119365.00,-7.77,5.67,-1.34,-0.35,0.32,0.04,-25.41,27.75,14.6119379.00,-6.04,6.50,-1.91,-0.15,0.37,0.08,-23.34,27.75,14.6119390.00,-6.04,6.50,-1.91,-0.15,0.37,0.08,-23.34,27.75,14.6119401.00,-5.79,6.39,-2.61,0.17,0.36,-0.00,-23.34,27.75,14.6119412.00,-5.79,6.39,-2.61,0.17,0.36,-0.00,-23.34,27.75,14.6119425.00,-6.11,6.84,-3.78,0.50,0.19,0.13,-23.34,27.75,14.6119437.00,-6.11,6.84,-3.78,0.50,0.19,0.13,-23.34,27.75,14.6119449.00,-7.82,7.08,-2.49,0.62,-0.18,0.16,-23.34,27.75,14.6119459.00,-9.80,4.18,-1.97,0.70,-0.21,-0.07,-23.34,27.75,14.6119473.00,-9.80,4.18,-1.97,0.70,-0.21,-0.07,-23.34,27.75,14.6119485.00,-9.74,3.52,-1.88,0.49,-0.08,-0.00,-23.34,27.75,14.6119497.00,-9.74,3.52,-1.88,0.49,-0.08,-0.00,-23.34,27.75,14.6119507.00,-9.10,4.06,-2.05,0.18,-0.05,0.06,-21.69,29.45,12.7319521.00,-8.62,5.14,-1.86,-0.04,-0.09,0.05,-21.69,29.45,12.7319533.00,-8.62,5.14,-1.86,-0.04,-0.09,0.05,-21.69,29.45,12.7319544.00,-8.35,5.40,-1.98,-0.12,-0.10,-0.01,-21.69,29.45,12.7319555.00,-8.35,5.40,-1.98,-0.12,-0.10,-0.01,-21.69,29.45,12.7319569.00,-8.62,5.23,-1.89,-0.09,-0.09,-0.04,-21.69,29.45,12.7319581.00,-8.44,5.03,-2.12,-0.05,-0.05,0.00,-21.69,29.45,12.7319593.00,-8.44,5.03,-2.12,-0.05,-0.05,0.00,-21.69,29.45,12.7319604.00,-8.13,5.23,-2.34,-0.05,-0.03,0.03,-21.69,29.45,12.7319617.00,-8.13,5.23,-2.34,-0.05,-0.03,0.03,-21.69,29.45,12.7319629.00,-8.27,5.34,-2.09,-0.05,-0.06,-0.01,-24.37,29.28,14.4519641.00,-8.46,4.99,-1.91,-0.01,-0.08,-0.04,-24.37,29.28,14.4519653.00,-8.46,4.99,-1.91,-0.01,-0.08,-0.04,-24.37,29.28,14.4519666.00,-8.74,4.52,-1.80,0.04,-0.07,-0.03,-24.37,29.28,14.4519678.00,-8.63,4.67,-2.03,-0.00,-0.02,0.00,-24.37,29.28,14.4519690.00,-8.63,4.67,-2.03,-0.00,-0.02,0.00,-24.37,29.28,14.4519701.00,-8.32,5.06,-2.28,-0.04,0.02,0.02,-24.37,29.28,14.4519714.00,-8.32,5.06,-2.28,-0.04,0.02,0.02,-24.37,29.28,14.4519725.00,-8.11,5.30,-2.29,-0.05,0.01,0.00,-24.37,29.28,14.4519736.00,-8.11,5.30,-2.29,-0.05,0.01,0.00,-24.37,29.28,14.4519748.00,-8.21,5.28,-2.01,-0.04,-0.03,-0.05,-23.13,28.60,13.8319761.00,-8.31,5.15,-1.97,-0.03,-0.05,-0.08,-23.13,28.60,13.8319772.00,-8.31,5.15,-1.97,-0.03,-0.05,-0.08,-23.13,28.60,13.8319784.00,-8.26,5.19,-2.21,-0.03,-0.09,-0.14,-23.13,28.60,13.8319796.00,-8.26,5.19,-2.21,-0.03,-0.09,-0.14,-23.13,28.60,13.8319809.00,-8.70,5.09,-2.16,-0.09,-0.13,-0.14,-23.13,28.60,13.8319821.00,-8.52,4.75,-2.11,-0.11,-0.12,-0.11,-23.13,28.60,13.8319833.00,-8.52,4.75,-2.11,-0.11,-0.12,-0.11,-23.13,28.60,13.8319845.00,-8.64,4.71,-2.10,-0.12,-0.12,-0.11,-23.13,28.60,13.8319849.00,-8.64,4.71,-2.10,-0.12,-0.12,-0.11,-23.13,28.60,13.8319929.00,-7.84,6.48,-1.20,-0.21,0.23,-0.26,-24.37,29.28,13.5220006.00,-8.79,5.16,-2.38,0.05,-0.56,0.08,-24.37,28.26,13.8320085.00,-8.73,6.06,-1.01,0.06,-0.42,0.03,-24.37,28.26,13.8320174.00,-9.26,4.58,-1.53,-0.47,0.44,0.06,-23.96,29.28,13.5220186.00,-8.88,3.92,-2.89,-0.40,0.45,-0.04,-23.96,29.28,13.5220198.00,-8.88,3.92,-2.89,-0.40,0.45,-0.04,-23.96,29.28,13.5220210.00,-10.11,4.25,-1.38,-0.55,0.26,0.13,-23.96,29.28,13.5220222.00,-7.94,5.72,-1.39,-0.60,0.37,0.39,-23.96,29.28,13.5220235.00,-7.94,5.72,-1.39,-0.60,0.37,0.39,-23.96,29.28,13.5220246.00,-6.97,6.80,-1.84,-0.38,0.46,0.21,-21.07,28.26,14.4520258.00,-6.97,6.80,-1.84,-0.38,0.46,0.21,-21.07,28.26,14.4520270.00,-6.87,6.33,-2.10,-0.07,0.46,-0.02,-21.07,28.26,14.4520283.00,-6.80,5.72,-2.19,0.08,0.45,-0.11,-21.07,28.26,14.4520295.00,-6.80,5.72,-2.19,0.08,0.45,-0.11,-21.07,28.26,14.4520307.00,-7.80,5.91,-2.64,0.26,0.38,-0.31,-21.07,28.26,14.4520318.00,-11.23,2.37,-2.18,0.41,0.09,-0.56,-21.07,28.26,14.4520331.00,-11.23,2.37,-2.18,0.41,0.09,-0.56,-21.07,28.26,14.4520343.00,-8.96,3.32,-1.66,-0.07,-0.10,-0.20,-21.07,28.26,14.4520355.00,-8.96,3.32,-1.66,-0.07,-0.10,-0.20,-21.07,28.26,14.4520367.00,-9.36,5.42,-1.77,-0.11,-0.11,-0.08,-23.13,27.58,13.5220380.00,-9.17,5.06,-1.47,0.07,-0.06,-0.21,-23.13,27.58,13.5220392.00,-9.17,5.06,-1.47,0.07,-0.06,-0.21,-23.13,27.58,13.5220404.00,-9.10,4.92,-1.40,0.15,0.02,-0.36,-23.13,27.58,13.5220415.00,-9.10,4.92,-1.40,0.15,0.02,-0.36,-23.13,27.58,13.5220429.00,-11.29,2.21,-1.52,0.18,0.14,-0.28,-23.13,27.58,13.5220439.00,-8.84,4.29,-1.73,-0.14,0.35,0.47,-23.13,27.58,13.5220451.00,-8.84,4.29,-1.73,-0.14,0.35,0.47,-23.13,27.58,13.5220463.00,-7.04,3.57,-2.19,-0.20,0.44,0.31,-23.13,27.58,13.5220476.00,-7.04,3.57,-2.19,-0.20,0.44,0.31,-23.13,27.58,13.5220488.00,-8.04,1.87,-2.32,-0.07,0.33,-0.08,-23.13,27.58,13.5220500.00,-7.72,4.69,-3.12,-0.13,0.27,0.05,-24.37,28.94,12.5820512.00,-7.72,4.69,-3.12,-0.13,0.27,0.05,-24.37,28.94,12.5820525.00,-5.92,5.98,-3.16,-0.09,0.13,0.30,-24.37,28.94,12.5820537.00,-5.92,5.98,-3.16,-0.09,0.13,0.30,-24.37,28.94,12.5820549.00,-5.15,8.31,-4.34,0.10,-0.10,0.49,-24.37,28.94,12.5820561.00,-7.14,6.43,-2.49,0.35,-0.48,0.19,-24.37,28.94,12.5820574.00,-7.14,6.43,-2.49,0.35,-0.48,0.19,-24.37,28.94,12.5820586.00,-9.84,4.22,-2.46,0.64,-0.47,-0.02,-24.37,28.94,12.5820598.00,-9.84,4.22,-2.46,0.64,-0.47,-0.02,-24.37,28.94,12.5820610.00,-10.48,3.85,-1.70,0.47,-0.35,0.08,-24.37,28.94,12.5820625.00,-9.12,4.60,-1.73,0.17,-0.17,0.20,-22.51,28.77,12.1120637.00,-9.12,4.60,-1.73,0.17,-0.17,0.20,-22.51,28.77,12.1120649.00,-8.66,4.66,-1.91,-0.03,-0.13,0.17,-22.51,28.77,12.1120660.00,-8.74,4.68,-2.06,-0.18,-0.11,0.16,-22.51,28.77,12.1120673.00,-8.74,4.68,-2.06,-0.18,-0.11,0.16,-22.51,28.77,12.1120685.00,-7.78,5.49,-2.72,-0.27,-0.07,0.08,-22.51,28.77,12.1120697.00,-7.78,5.49,-2.72,-0.27,-0.07,0.08,-22.51,28.77,12.1120708.00,-7.89,5.75,-2.59,-0.24,-0.11,-0.14,-22.51,28.77,12.1120721.00,-9.31,4.32,-2.54,-0.17,-0.11,-0.31,-22.51,28.77,12.1120733.00,-9.31,4.32,-2.54,-0.17,-0.11,-0.31,-22.51,28.77,12.1120745.00,-8.24,4.87,-1.69,-0.19,-0.07,-0.11,-23.75,29.79,14.9220757.00,-8.24,4.87,-1.69,-0.19,-0.07,-0.11,-23.75,29.79,14.9220770.00,-8.17,4.94,-2.32,0.05,0.01,-0.03,-23.75,29.79,14.9220782.00,-8.28,5.00,-1.95,0.15,-0.09,0.00,-23.75,29.79,14.9220793.00,-8.28,5.00,-1.95,0.15,-0.09,0.00,-23.75,29.79,14.9220804.00,-8.03,4.17,-2.49,0.31,-0.03,0.02,-23.75,29.79,14.9220816.00,-8.03,4.17,-2.49,0.31,-0.03,0.02,-23.75,29.79,14.9220829.00,-8.51,4.06,-2.90,0.19,-0.18,0.13,-23.75,29.79,14.9220840.00,-8.89,4.54,-1.98,-0.11,-0.37,0.17,-23.75,29.79,14.9220852.00,-8.89,4.54,-1.98,-0.11,-0.37,0.17,-23.75,29.79,14.9220864.00,-8.69,4.39,-2.59,-0.28,-0.31,0.07,-22.51,28.43,13.0520877.00,-8.69,4.39,-2.59,-0.28,-0.31,0.07,-22.51,28.43,13.0520889.00,-8.78,5.09,-1.71,-0.62,-0.32,-0.02,-22.51,28.43,13.0520901.00,-8.21,4.73,-0.91,-0.61,-0.10,-0.16,-22.51,28.43,13.0520914.00,-8.21,4.73,-0.91,-0.61,-0.10,-0.16,-22.51,28.43,13.0520928.00,-7.96,6.07,-1.13,-0.37,0.15,-0.16,-22.51,28.43,13.0520940.00,-7.86,5.45,-1.94,-0.03,0.27,-0.17,-22.51,28.43,13.0520951.00,-7.86,5.45,-1.94,-0.03,0.27,-0.17,-22.51,28.43,13.0520962.00,-8.11,4.70,-2.61,0.22,0.20,-0.13,-22.51,28.43,13.0520975.00,-8.11,4.70,-2.61,0.22,0.20,-0.13,-22.51,28.43,13.0520987.00,-8.55,4.06,-2.24,0.24,0.04,-0.03,-22.51,28.43,13.0520998.00,-8.55,4.06,-2.24,0.24,0.04,-0.03,-22.51,28.43,13.0521010.00,-8.87,4.25,-2.74,0.10,-0.09,0.07,-21.89,29.28,13.2021024.00,-9.01,4.21,-2.56,-0.21,-0.29,0.08,-21.89,29.28,13.2021036.00,-9.01,4.21,-2.56,-0.21,-0.29,0.08,-21.89,29.28,13.2021047.00,-9.15,5.11,-2.00,-0.54,-0.27,-0.01,-21.89,29.28,13.2021059.00,-8.48,5.68,-1.53,-0.57,-0.16,-0.16,-21.89,29.28,13.2021072.00,-8.48,5.68,-1.53,-0.57,-0.16,-0.16,-21.89,29.28,13.2021084.00,-7.83,6.60,-1.81,-0.28,-0.11,-0.16,-21.89,29.28,13.2021096.00,-7.83,6.60,-1.81,-0.28,-0.11,-0.16,-21.89,29.28,13.2021107.00,-8.08,4.81,-2.08,0.12,-0.14,-0.11,-21.89,29.28,13.2021121.00,-8.36,4.64,-1.94,0.19,-0.21,0.03,-24.17,29.11,14.3021133.00,-8.36,4.64,-1.94,0.19,-0.21,0.03,-24.17,29.11,14.3021145.00,-8.47,4.78,-2.07,0.22,-0.13,0.10,-24.17,29.11,14.3021156.00,-8.47,4.78,-2.07,0.22,-0.13,0.10,-24.17,29.11,14.3021170.00,-8.94,4.52,-1.42,0.16,-0.08,0.08,-24.17,29.11,14.3021182.00,-9.97,3.46,-1.80,-0.00,0.03,0.17,-24.17,29.11,14.3021193.00,-9.97,3.46,-1.80,-0.00,0.03,0.17,-24.17,29.11,14.3021204.00,-8.42,4.82,-2.19,-0.24,0.13,0.34,-24.17,29.11,14.3021216.00,-8.42,4.82,-2.19,-0.24,0.13,0.34,-24.17,29.11,14.3021228.00,-7.10,6.42,-2.33,-0.38,0.09,0.14,-24.17,29.11,14.3021239.00,-7.00,6.23,-2.61,-0.23,0.00,-0.18,-24.17,29.11,14.3021249.00,-7.00,6.23,-2.61,-0.23,0.00,-0.18,-22.51,28.09,14.6121263.00,-7.73,5.50,-2.08,-0.04,-0.10,-0.40,-22.51,28.09,14.6121275.00,-7.73,5.50,-2.08,-0.04,-0.10,-0.40,-22.51,28.09,14.6121286.00,-9.68,3.57,-1.55,0.02,-0.13,-0.45,-22.51,28.09,14.6121297.00,-9.68,3.57,-1.55,0.02,-0.13,-0.45,-22.51,28.09,14.6121310.00,-8.52,4.48,-1.52,-0.01,-0.05,-0.12,-22.51,28.09,14.6121322.00,-8.12,5.50,-1.90,0.07,-0.06,-0.03,-22.51,28.09,14.6121334.00,-8.12,5.50,-1.90,0.07,-0.06,-0.03,-22.51,28.09,14.6121345.00,-8.77,5.49,-1.16,0.22,-0.14,-0.01,-22.51,28.09,14.6121357.00,-8.77,5.49,-1.16,0.22,-0.14,-0.01,-22.51,28.09,14.6121369.00,-8.44,4.29,-2.33,0.27,-0.11,-0.01,-24.58,29.11,13.3621381.00,-8.88,3.93,-2.06,0.12,-0.22,0.09,-24.58,29.11,13.3621392.00,-8.88,3.93,-2.06,0.12,-0.22,0.09,-24.58,29.11,13.3621405.00,-9.01,4.18,-1.54,-0.11,-0.27,0.10,-24.58,29.11,13.3621417.00,-9.01,4.18,-1.54,-0.11,-0.27,0.10,-24.58,29.11,13.3621429.00,-9.13,4.83,-2.64,-0.33,-0.19,0.05,-24.58,29.11,13.3621440.00,-9.04,5.13,-0.75,-0.58,-0.17,-0.14,-24.58,29.11,13.3621453.00,-9.04,5.13,-0.75,-0.58,-0.17,-0.14,-24.58,29.11,13.3621465.00,-8.57,4.31,-1.24,-0.39,0.20,-0.32,-24.58,29.11,13.3621476.00,-8.57,4.31,-1.24,-0.39,0.20,-0.32,-24.58,29.11,13.3621487.00,-8.84,4.83,-0.82,-0.28,0.45,-0.37,-24.58,29.11,13.3621500.00,-7.81,6.10,-1.62,-0.21,0.64,-0.38,-23.34,27.75,15.5521512.00,-7.81,6.10,-1.62,-0.21,0.64,-0.38,-23.34,27.75,15.5521524.00,-7.81,5.15,-3.05,0.11,0.59,-0.28,-23.34,27.75,15.5521535.00,-7.81,5.15,-3.05,0.11,0.59,-0.28,-23.34,27.75,15.5521547.00,-8.02,4.76,-2.62,0.29,0.20,-0.11,-23.34,27.75,15.5521560.00,-8.40,4.79,-3.50,0.36,-0.07,0.06,-23.34,27.75,15.5521571.00,-8.40,4.79,-3.50,0.36,-0.07,0.06,-23.34,27.75,15.5521583.00,-8.51,4.65,-2.11,0.17,-0.49,0.19,-23.34,27.75,15.5521595.00,-8.51,4.65,-2.11,0.17,-0.49,0.19,-23.34,27.75,15.5521599.00,-8.93,3.24,-2.06,0.00,-0.61,0.12,-23.34,27.75,15.5521677.00,-8.65,5.23,-0.95,-0.56,-0.26,-0.12,-23.75,28.43,13.6721756.00,-8.48,3.52,-2.50,0.29,0.07,-0.10,-22.72,27.58,14.4521834.00,-10.04,4.34,-0.47,-0.22,0.02,0.07,-22.72,27.58,14.4521925.00,-10.62,2.85,-0.54,0.46,-0.15,-0.43,-24.58,27.41,15.5521937.00,-10.62,2.85,-0.54,0.46,-0.15,-0.43,-24.58,27.41,15.5521949.00,-9.50,3.09,-2.30,0.12,-0.03,-0.07,-24.58,27.41,15.5521960.00,-9.89,5.09,-1.10,-0.02,-0.07,0.03,-24.58,27.41,15.5521973.00,-9.89,5.09,-1.10,-0.02,-0.07,0.03,-24.58,27.41,15.5521985.00,-9.24,4.90,-1.76,0.04,0.04,0.12,-24.58,27.41,15.5521997.00,-9.24,4.90,-1.76,0.04,0.04,0.12,-24.58,27.41,15.5522008.00,-7.69,4.82,-2.56,0.04,0.03,0.15,-25.41,26.73,12.7322022.00,-7.38,5.38,-2.78,0.11,-0.06,0.01,-25.41,26.73,12.7322034.00,-7.38,5.38,-2.78,0.11,-0.06,0.01,-25.41,26.73,12.7322046.00,-7.08,5.00,-3.19,0.24,-0.15,-0.19,-25.41,26.73,12.7322058.00,-7.08,5.00,-3.19,0.24,-0.15,-0.19,-25.41,26.73,12.7322071.00,-7.57,5.12,-2.74,0.33,-0.31,-0.38,-25.41,26.73,12.7322083.00,-11.89,1.44,-0.91,0.37,-0.36,-0.55,-25.41,26.73,12.7322095.00,-11.89,1.44,-0.91,0.37,-0.36,-0.55,-25.41,26.73,12.7322105.00,-9.21,1.85,-0.59,0.11,-0.06,-0.20,-25.41,26.73,12.7322119.00,-8.91,4.10,-2.76,-0.14,0.15,-0.06,-25.41,26.73,12.7322131.00,-8.91,4.10,-2.76,-0.14,0.15,-0.06,-26.23,26.73,12.7322143.00,-8.57,5.71,-2.70,-0.37,-0.06,-0.05,-26.23,26.73,12.7322155.00,-8.57,5.71,-2.70,-0.37,-0.06,-0.05,-26.23,26.73,12.7322168.00,-8.95,5.49,-0.60,-0.24,-0.29,-0.10,-26.23,26.73,12.7322180.00,-8.45,3.23,-3.62,0.12,-0.15,-0.15,-26.23,26.73,12.7322192.00,-8.45,3.23,-3.62,0.12,-0.15,-0.15,-26.23,26.73,12.7322204.00,-8.59,3.77,-2.28,0.07,-0.31,0.00,-26.23,26.73,12.7322217.00,-8.59,3.77,-2.28,0.07,-0.31,0.00,-26.23,26.73,12.7322229.00,-8.99,4.34,-1.51,-0.05,-0.29,0.07,-26.23,26.73,12.7322241.00,-8.86,4.07,-1.97,-0.15,-0.15,-0.00,-25.20,27.24,13.5222252.00,-8.86,4.07,-1.97,-0.15,-0.15,-0.00,-25.20,27.24,13.5222266.00,-9.36,4.41,-1.20,-0.26,-0.08,-0.04,-25.20,27.24,13.5222278.00,-9.36,4.41,-1.20,-0.26,-0.08,-0.04,-25.20,27.24,13.5222288.00,-9.04,3.74,-1.17,-0.26,0.17,-0.20,-25.20,27.24,13.5222300.00,-8.56,4.12,-2.15,-0.32,0.22,-0.22,-25.20,27.24,13.5222312.00,-8.56,4.12,-2.15,-0.32,0.22,-0.22,-25.20,27.24,13.5222324.00,-8.43,4.94,-1.78,-0.31,-0.01,-0.10,-25.20,27.24,13.5222336.00,-8.43,4.94,-1.78,-0.31,-0.01,-0.10,-25.20,27.24,13.5222347.00,-8.58,3.44,-3.36,-0.10,-0.16,-0.02,-25.20,27.24,13.5222360.00,-9.11,3.92,-1.27,-0.20,-0.51,0.16,-26.85,27.92,14.7722371.00,-9.11,3.92,-1.27,-0.20,-0.51,0.16,-26.85,27.92,14.7722383.00,-9.04,4.68,-1.36,-0.10,-0.38,0.21,-26.85,27.92,14.7722395.00,-9.04,4.68,-1.36,-0.10,-0.38,0.21,-26.85,27.92,14.7722408.00,-9.70,4.24,-0.60,-0.00,-0.19,0.12,-26.85,27.92,14.7722420.00,-10.46,2.50,-0.97,-0.05,0.15,0.23,-26.85,27.92,14.7722432.00,-10.46,2.50,-0.97,-0.05,0.15,0.23,-26.85,27.92,14.7722443.00,-9.91,2.74,-1.40,-0.30,0.44,0.51,-26.85,27.92,14.7722456.00,-9.91,2.74,-1.40,-0.30,0.44,0.51,-26.85,27.92,14.7722467.00,-9.52,3.51,-1.71,-0.55,0.66,0.71,-26.85,27.92,14.7722478.00,-9.52,3.51,-1.71,-0.55,0.66,0.71,-26.85,27.92,14.7722490.00,-9.54,3.19,-1.94,-0.76,0.94,0.64,-26.85,27.92,14.7722503.00,-6.61,6.91,-2.95,-0.66,0.96,0.57,-24.37,26.56,15.0822514.00,-6.61,6.91,-2.95,-0.66,0.96,0.57,-24.37,26.56,15.0822526.00,-6.60,6.39,-2.42,-0.36,0.50,0.00,-24.37,26.56,15.0822538.00,-6.60,6.39,-2.42,-0.36,0.50,0.00,-24.37,26.56,15.0822549.00,-7.68,3.95,-2.42,0.03,0.06,-0.24,-24.37,26.56,15.0822563.00,-9.41,4.89,-1.05,0.21,-0.19,0.06,-24.37,26.56,15.0822575.00,-9.41,4.89,-1.05,0.21,-0.19,0.06,-24.37,26.56,15.0822586.00,-8.25,3.63,-2.19,0.76,-0.14,0.37,-24.37,26.56,15.0822598.00,-8.25,3.63,-2.19,0.76,-0.14,0.37,-24.37,26.56,15.0822603.00,-6.55,3.70,-4.03,1.08,-0.22,0.64,-24.37,26.56,15.0822680.00,-7.88,4.93,-2.59,1.45,0.07,0.44,-22.10,27.07,13.0522759.00,-8.13,4.90,-2.61,-0.09,-0.13,0.02,-22.51,28.43,10.2322836.00,-8.44,4.87,-2.77,-0.10,-0.01,-0.11,-22.51,28.43,10.2322927.00,-8.45,4.58,-2.90,-0.03,-0.05,-0.01,-23.13,27.92,10.0822939.00,-8.45,4.58,-2.90,-0.03,-0.05,-0.01,-23.13,27.92,10.0822950.00,-8.14,4.65,-3.26,-0.11,-0.07,-0.03,-23.13,27.92,10.0822962.00,-8.48,4.81,-2.77,-0.13,-0.17,-0.02,-23.13,27.92,10.0822974.00,-8.48,4.81,-2.77,-0.13,-0.17,-0.02,-23.13,27.92,10.0822986.00,-8.34,4.99,-2.41,-0.08,-0.19,0.01,-23.13,27.92,10.0822998.00,-8.34,4.99,-2.41,-0.08,-0.19,0.01,-23.13,27.92,10.0823010.00,-8.11,5.04,-2.57,-0.05,-0.15,-0.02,-23.96,28.26,8.8323023.00,-8.16,4.97,-2.85,0.00,-0.13,-0.06,-23.96,28.26,8.8323035.00,-8.16,4.97,-2.85,0.00,-0.13,-0.06,-23.96,28.26,8.8323046.00,-7.91,5.28,-2.99,0.01,-0.16,-0.12,-23.96,28.26,8.8323058.00,-7.91,5.28,-2.99,0.01,-0.16,-0.12,-23.96,28.26,8.8323071.00,-9.11,4.13,-2.32,-0.00,-0.22,-0.22,-23.96,28.26,8.8323083.00,-8.55,3.82,-2.32,-0.14,-0.19,-0.10,-23.96,28.26,8.8323095.00,-8.55,3.82,-2.32,-0.14,-0.19,-0.10,-23.96,28.26,8.8323105.00,-8.45,4.80,-2.41,-0.23,-0.15,-0.03,-23.96,28.26,8.8323119.00,-8.45,4.80,-2.41,-0.23,-0.15,-0.03,-23.96,28.26,8.8323131.00,-8.41,5.30,-2.52,-0.17,-0.12,-0.05,-22.72,27.92,11.3323142.00,-8.49,4.57,-2.26,-0.10,-0.12,-0.11,-22.72,27.92,11.3323154.00,-8.49,4.57,-2.26,-0.10,-0.12,-0.11,-22.72,27.92,11.3323167.00,-8.43,4.20,-2.53,-0.07,-0.07,-0.08,-22.72,27.92,11.3323178.00,-8.43,4.20,-2.53,-0.07,-0.07,-0.08,-22.72,27.92,11.3323189.00,-8.59,4.60,-2.47,-0.15,-0.06,-0.02,-22.72,27.92,11.3323200.00,-8.87,5.00,-2.00,-0.19,0.03,-0.08,-22.72,27.92,11.3323213.00,-8.87,5.00,-2.00,-0.19,0.03,-0.08,-22.72,27.92,11.3323223.00,-8.24,4.05,-3.16,-0.16,0.15,-0.18,-22.72,27.92,11.3323235.00,-8.24,4.05,-3.16,-0.16,0.15,-0.18,-22.72,27.92,11.3323247.00,-8.56,4.68,-2.57,-0.29,0.11,-0.13,-23.96,27.58,11.9523260.00,-8.44,5.42,-2.13,-0.24,0.08,-0.11,-23.96,27.58,11.9523272.00,-8.44,5.42,-2.13,-0.24,0.08,-0.11,-23.96,27.58,11.9523284.00,-8.40,5.24,-2.72,-0.01,0.01,-0.10,-23.96,27.58,11.9523294.00,-8.40,5.24,-2.72,-0.01,0.01,-0.10,-23.96,27.58,11.9523308.00,-8.27,4.54,-2.72,0.17,-0.13,-0.11,-23.96,27.58,11.9523320.00,-8.44,4.57,-2.72,0.18,-0.25,-0.02,-23.96,27.58,11.9523332.00,-8.44,4.57,-2.72,0.18,-0.25,-0.02,-23.96,27.58,11.9523345.00,-8.59,4.39,-2.21,0.07,-0.28,0.03,-23.96,27.58,11.9523358.00,-8.59,4.39,-2.21,0.07,-0.28,0.03,-23.96,27.58,11.9523369.00,-8.48,4.32,-2.36,-0.05,-0.18,0.01,-24.58,27.75,11.8023380.00,-8.48,4.32,-2.36,-0.05,-0.18,0.01,-24.58,27.75,11.8023391.00,-8.63,4.63,-2.35,-0.20,-0.10,-0.00,-24.58,27.75,11.8023405.00,-8.95,4.62,-1.52,-0.29,0.01,-0.07,-24.58,27.75,11.8023417.00,-8.95,4.62,-1.52,-0.29,0.01,-0.07,-24.58,27.75,11.8023428.00,-8.80,3.66,-2.61,-0.26,0.26,-0.20,-24.58,27.75,11.8023440.00,-8.16,5.62,-2.48,-0.37,0.18,-0.16,-24.58,27.75,11.8023453.00,-8.16,5.62,-2.48,-0.37,0.18,-0.16,-24.58,27.75,11.8023464.00,-8.17,5.60,-2.46,-0.07,0.05,-0.10,-24.58,27.75,11.8023475.00,-8.17,5.60,-2.46,-0.07,0.05,-0.10,-24.58,27.75,11.8023486.00,-8.44,4.33,-3.24,0.20,-0.05,-0.09,-24.58,27.75,11.8023499.00,-8.44,4.33,-3.24,0.20,-0.05,-0.09,-24.58,27.75,11.8023511.00,-8.41,3.99,-2.30,0.06,-0.35,0.01,-24.58,27.75,11.8023522.00,-8.74,4.28,-2.46,-0.02,-0.31,0.00,-24.58,27.75,11.8023533.00,-8.74,4.28,-2.46,-0.02,-0.31,0.00,-24.58,27.75,11.8023545.00,-8.55,4.48,-2.24,-0.11,-0.19,-0.04,-24.58,27.75,11.8023558.00,-8.55,4.48,-2.24,-0.11,-0.19,-0.04,-24.58,27.75,11.8023569.00,-9.13,5.07,-1.25,-0.24,-0.08,-0.08,-24.58,27.75,11.8023581.00,-8.70,4.31,-2.18,-0.22,0.23,-0.26,-24.58,27.75,11.8023593.00,-8.70,4.31,-2.18,-0.22,0.23,-0.26,-24.58,27.75,11.8023605.00,-7.97,4.82,-3.65,-0.26,0.25,-0.22,-24.58,27.75,11.8023617.00,-7.97,4.82,-3.65,-0.26,0.25,-0.22,-24.58,27.75,11.8023629.00,-8.46,4.91,-2.16,-0.18,-0.05,-0.09,-24.37,26.22,11.9523641.00,-8.61,3.23,-3.41,0.01,-0.16,-0.01,-24.37,26.22,11.9523655.00,-8.61,3.23,-3.41,0.01,-0.16,-0.01,-24.37,26.22,11.9523666.00,-8.89,5.26,-1.54,-0.16,-0.40,0.17,-24.37,26.22,11.9523678.00,-8.89,5.26,-1.54,-0.16,-0.40,0.17,-24.37,26.22,11.9523690.00,-9.64,5.93,-1.01,-0.07,-0.22,-0.03,-24.37,26.22,11.9523702.00,-10.65,2.91,-0.91,-0.03,0.21,-0.13,-24.37,26.22,11.9523714.00,-10.65,2.91,-0.91,-0.03,0.21,-0.13,-24.37,26.22,11.9523726.00,-8.82,2.79,-2.18,-0.30,0.50,0.14,-24.37,26.22,11.9523738.00,-8.82,2.79,-2.18,-0.30,0.50,0.14,-24.37,26.22,11.9523751.00,-7.29,5.01,-2.60,-0.38,0.54,0.18,-25.20,27.92,12.8923763.00,-8.16,2.01,-3.17,-0.32,0.44,-0.20,-25.20,27.92,12.8923774.00,-8.16,2.01,-3.17,-0.32,0.44,-0.20,-25.20,27.92,12.8923785.00,-7.30,6.02,-3.32,-0.42,0.31,0.23,-25.20,27.92,12.8923798.00,-7.30,6.02,-3.32,-0.42,0.31,0.23,-25.20,27.92,12.8923809.00,-5.55,8.78,-4.23,-0.14,0.19,0.49,-25.20,27.92,12.8923821.00,-6.17,6.58,-3.16,0.26,-0.14,0.13,-25.20,27.92,12.8923832.00,-6.17,6.58,-3.16,0.26,-0.14,0.13,-25.20,27.92,12.8923844.00,-9.87,3.58,-2.11,0.40,-0.39,-0.20,-25.20,27.92,12.8923856.00,-9.87,3.58,-2.11,0.40,-0.39,-0.20,-25.20,27.92,12.8923868.00,-9.60,3.27,-1.99,0.15,-0.33,-0.08,-23.96,28.26,12.5823880.00,-9.60,3.27,-1.99,0.15,-0.33,-0.08,-23.96,28.26,12.5823893.00,-8.31,5.11,-2.48,-0.04,-0.27,-0.01,-23.96,28.26,12.5823905.00,-9.63,4.59,-1.79,-0.04,-0.33,-0.16,-23.96,28.26,12.5823917.00,-9.63,4.59,-1.79,-0.04,-0.33,-0.16,-23.96,28.26,12.5823927.00,-9.01,4.24,-1.66,-0.02,-0.23,-0.08,-23.96,28.26,12.5823941.00,-8.56,4.25,-2.32,0.03,-0.11,-0.03,-23.96,28.26,12.5823952.00,-8.56,4.25,-2.32,0.03,-0.11,-0.03,-23.96,28.26,12.5823963.00,-8.55,4.63,-2.39,0.12,-0.11,0.04,-23.96,28.26,12.5823975.00,-8.55,4.63,-2.39,0.12,-0.11,0.04,-23.96,28.26,12.5823988.00,-8.91,4.71,-2.74,0.09,-0.23,0.14,-25.82,27.07,13.3623998.00,-8.91,4.71,-2.74,0.09,-0.23,0.14,-25.82,27.07,13.3624010.00,-8.82,4.12,-2.14,-0.07,-0.30,0.11,-25.82,27.07,13.3624022.00,-8.71,4.32,-2.49,-0.17,-0.21,0.06,-25.82,27.07,13.3624034.00,-8.71,4.32,-2.49,-0.17,-0.21,0.06,-25.82,27.07,13.3624046.00,-9.12,5.30,-1.71,-0.33,-0.15,-0.02,-25.82,27.07,13.3624058.00,-9.12,5.30,-1.71,-0.33,-0.15,-0.02,-25.82,27.07,13.3624070.00,-8.23,4.13,-1.96,-0.26,0.07,-0.18,-25.82,27.07,13.3624083.00,-8.16,5.19,-2.06,-0.27,0.08,-0.14,-25.82,27.07,13.3624095.00,-8.16,5.19,-2.06,-0.27,0.08,-0.14,-25.82,27.07,13.3624107.00,-8.44,5.39,-1.95,-0.16,-0.01,-0.10,-25.82,27.07,13.3624119.00,-8.44,5.39,-1.95,-0.16,-0.01,-0.10,-25.82,27.07,13.3624133.00,-8.58,4.49,-2.66,-0.01,-0.08,-0.10,-25.20,27.58,13.2024145.00,-8.63,4.60,-1.97,-0.08,-0.27,-0.05,-25.20,27.58,13.2024156.00,-8.63,4.60,-1.97,-0.08,-0.27,-0.05,-25.20,27.58,13.2024167.00,-8.54,4.44,-2.57,-0.05,-0.20,-0.02,-25.20,27.58,13.2024181.00,-8.54,4.64,-1.98,-0.09,-0.13,-0.02,-25.20,27.58,13.2024192.00,-8.54,4.64,-1.98,-0.09,-0.13,-0.02,-25.20,27.58,13.2024203.00,-9.03,4.74,-1.89,-0.17,-0.07,-0.04,-25.20,27.58,13.2024214.00,-9.03,4.74,-1.89,-0.17,-0.07,-0.04,-25.20,27.58,13.2024228.00,-9.05,4.61,-1.24,-0.26,0.04,-0.15,-25.20,27.58,13.2024239.00,-9.05,4.61,-1.24,-0.26,0.04,-0.15,-25.20,27.58,13.2024251.00,-8.29,3.69,-2.68,-0.24,0.21,-0.26,-23.55,25.88,13.5224263.00,-8.34,6.04,-1.56,-0.22,0.05,-0.12,-23.55,25.88,13.5224277.00,-8.34,6.04,-1.56,-0.22,0.05,-0.12,-23.55,25.88,13.5224289.00,-8.27,3.64,-3.25,0.14,-0.02,-0.11,-23.55,25.88,13.5224301.00,-8.93,4.11,-1.50,0.04,-0.33,0.10,-23.55,25.88,13.5224312.00,-8.93,4.11,-1.50,0.04,-0.33,0.10,-23.55,25.88,13.5224326.00,-9.09,5.27,-1.65,0.02,-0.20,0.09,-23.55,25.88,13.5224338.00,-9.09,5.27,-1.65,0.02,-0.20,0.09,-23.55,25.88,13.5224349.00,-9.29,4.13,-1.44,-0.01,0.00,-0.10,-23.55,25.88,13.5224361.00,-8.74,3.71,-2.12,-0.26,0.17,-0.11,-26.03,27.58,13.5224365.00,-8.74,3.71,-2.12,-0.26,0.17,-0.11,-26.03,27.58,13.5224445.00,-8.67,3.82,-1.82,-0.10,-0.23,-0.07,-26.03,27.58,13.5224522.00,-7.94,5.09,-2.01,-0.02,-0.61,0.00,-24.17,26.39,14.6124602.00,-9.20,4.28,-0.62,0.32,0.24,0.02,-24.17,26.39,14.6124691.00,-8.95,4.06,-1.64,-0.85,0.29,-0.24,-24.58,27.07,13.6724703.00,-8.18,5.66,-1.38,-0.84,0.27,-0.22,-24.58,27.07,13.6724714.00,-8.18,5.66,-1.38,-0.84,0.27,-0.22,-24.58,27.07,13.6724726.00,-7.87,5.73,-2.04,-0.23,0.36,-0.16,-24.58,27.07,13.6724740.00,-7.87,5.73,-2.04,-0.23,0.36,-0.16,-24.58,27.07,13.6724751.00,-8.32,5.03,-1.75,0.22,0.29,-0.06,-24.99,26.39,14.3024763.00,-8.24,3.87,-2.36,0.35,0.13,0.00,-24.99,26.39,14.3024775.00,-8.24,3.87,-2.36,0.35,0.13,0.00,-24.99,26.39,14.3024786.00,-8.80,4.01,-2.57,0.31,0.00,0.09,-24.99,26.39,14.3024800.00,-8.80,4.01,-2.57,0.31,0.00,0.09,-24.99,26.39,14.3024812.00,-8.97,3.61,-2.36,0.02,-0.25,0.19,-24.99,26.39,14.3024822.00,-9.13,4.01,-3.17,-0.34,-0.51,0.26,-24.99,26.39,14.3024834.00,-9.13,4.01,-3.17,-0.34,-0.51,0.26,-24.99,26.39,14.3024847.00,-8.86,3.80,-2.52,-0.63,-0.66,0.17,-24.99,26.39,14.3024858.00,-8.86,3.80,-2.52,-0.63,-0.66,0.17,-24.99,26.39,14.3024870.00,-9.11,4.70,-1.70,-0.79,-0.57,0.07,-23.55,25.54,15.7024881.00,-9.26,3.58,-1.49,-0.93,-0.37,-0.10,-23.55,25.54,15.7024893.00,-9.26,3.58,-1.49,-0.93,-0.37,-0.10,-23.55,25.54,15.7024905.00,-9.04,4.14,-0.55,-1.23,-0.17,-0.18,-23.55,25.54,15.7024917.00,-9.04,4.14,-0.55,-1.23,-0.17,-0.18,-23.55,25.54,15.7024929.00,-8.37,5.42,-0.44,-1.04,0.06,-0.21,-23.55,25.54,15.7024942.00,-7.64,6.09,-1.54,-0.58,0.06,-0.20,-23.55,25.54,15.7024954.00,-7.64,6.09,-1.54,-0.58,0.06,-0.20,-23.55,25.54,15.7024966.00,-8.12,4.97,-2.16,-0.04,-0.09,-0.13,-23.55,25.54,15.7024977.00,-8.12,4.97,-2.16,-0.04,-0.09,-0.13,-23.55,25.54,15.7024991.00,-8.74,3.79,-1.39,0.21,-0.28,0.01,-24.17,25.37,17.7425002.00,-9.38,4.20,-0.34,0.23,-0.35,0.17,-24.17,25.37,17.7425013.00,-9.38,4.20,-0.34,0.23,-0.35,0.17,-24.17,25.37,17.7425024.00,-9.10,4.42,-1.34,0.21,-0.12,0.12,-24.17,25.37,17.7425038.00,-9.10,4.42,-1.34,0.21,-0.12,0.12,-24.17,25.37,17.7425050.00,-11.71,3.62,1.07,0.17,0.04,0.14,-24.17,25.37,17.7425062.00,-9.23,3.67,-1.66,0.12,0.55,0.48,-24.17,25.37,17.7425072.00,-9.23,3.67,-1.66,0.12,0.55,0.48,-24.17,25.37,17.7425086.00,-8.32,3.40,-0.47,-0.07,0.52,0.13,-24.17,25.37,17.7425098.00,-8.32,3.40,-0.47,-0.07,0.52,0.13,-24.17,25.37,17.7425110.00,-11.26,0.55,-0.71,-0.15,0.59,-0.33,-24.17,25.37,17.7425122.00,-8.97,4.89,-1.32,-0.25,0.76,0.15,-27.06,26.05,16.1725135.00,-8.97,4.89,-1.32,-0.25,0.76,0.15,-27.06,26.05,16.1725147.00,-8.12,4.26,-2.03,0.09,0.74,-0.17,-27.06,26.05,16.1725159.00,-8.12,4.26,-2.03,0.09,0.74,-0.17,-27.06,26.05,16.1725171.00,-7.01,5.14,-2.55,0.22,0.60,-0.33,-27.06,26.05,16.1725184.00,-5.49,5.59,-3.51,0.43,0.44,-0.03,-27.06,26.05,16.1725195.00,-5.49,5.59,-3.51,0.43,0.44,-0.03,-27.06,26.05,16.1725206.00,-4.43,6.89,-4.11,0.73,0.18,0.56,-27.06,26.05,16.1725218.00,-4.43,6.89,-4.11,0.73,0.18,0.56,-27.06,26.05,16.1725231.00,-5.42,9.74,-4.70,0.91,-0.17,0.85,-27.06,26.05,16.1725241.00,-8.73,3.84,-3.37,1.07,-0.51,0.31,-22.93,26.39,13.6725253.00,-8.73,3.84,-3.37,1.07,-0.51,0.31,-22.93,26.39,13.6725265.00,-10.90,1.76,-2.79,0.60,-0.64,0.29,-22.93,26.39,13.6725277.00,-10.90,1.76,-2.79,0.60,-0.64,0.29,-22.93,26.39,13.6725291.00,-10.56,2.01,-1.47,0.03,-0.62,0.58,-22.93,26.39,13.6725303.00,-10.39,3.06,-1.08,0.12,-0.42,1.10,-22.93,26.39,13.6725315.00,-10.39,3.06,-1.08,0.12,-0.42,1.10,-22.93,26.39,13.6725327.00,-9.06,4.68,-1.60,0.31,-0.22,1.58,-22.93,26.39,13.6725340.00,-9.06,4.68,-1.60,0.31,-0.22,1.58,-22.93,26.39,13.6725352.00,-6.51,8.72,-1.70,0.36,-0.23,1.54,-22.93,26.39,13.6725363.00,-6.35,8.54,-2.08,0.64,-0.40,0.73,-20.65,27.92,13.5225375.00,-6.35,8.54,-2.08,0.64,-0.40,0.73,-20.65,27.92,13.5225388.00,-8.17,7.50,-1.35,0.89,-0.42,0.17,-20.65,27.92,13.5225399.00,-8.17,7.50,-1.35,0.89,-0.42,0.17,-20.65,27.92,13.5225412.00,-9.04,5.39,-1.67,1.09,-0.07,0.01,-20.65,27.92,13.5225424.00,-8.39,4.98,-2.53,0.46,0.17,-0.09,-20.65,27.92,13.5225437.00,-8.39,4.98,-2.53,0.46,0.17,-0.09,-20.65,27.92,13.5225449.00,-7.02,6.56,-2.58,-0.43,0.17,-0.30,-20.65,27.92,13.5225461.00,-7.89,6.40,-2.13,-0.55,0.16,-0.50,-20.65,27.92,13.5225473.00,-7.89,6.40,-2.13,-0.55,0.16,-0.50,-20.65,27.92,13.5225486.00,-8.43,5.03,-2.22,-0.26,0.23,-0.42,-18.80,29.79,12.1125497.00,-8.43,5.03,-2.22,-0.26,0.23,-0.42,-18.80,29.79,12.1125509.00,-8.28,4.47,-2.84,-0.08,0.27,-0.28,-18.80,29.79,12.1125521.00,-7.84,4.91,-3.20,-0.07,0.18,-0.24,-18.80,29.79,12.1125534.00,-7.84,4.91,-3.20,-0.07,0.18,-0.24,-18.80,29.79,12.1125546.00,-8.15,4.76,-3.17,-0.00,0.04,-0.21,-18.80,29.79,12.1125558.00,-8.15,4.76,-3.17,-0.00,0.04,-0.21,-18.80,29.79,12.1125569.00,-8.14,4.99,-2.92,-0.03,-0.05,-0.17,-18.80,29.79,12.1125582.00,-8.24,5.19,-2.33,-0.03,-0.07,-0.15,-18.80,29.79,12.1125593.00,-8.24,5.19,-2.33,-0.03,-0.07,-0.15,-18.80,29.79,12.1125605.00,-8.17,5.29,-2.32,-0.01,-0.03,-0.09,-18.80,29.79,12.1125616.00,-8.17,5.29,-2.32,-0.01,-0.03,-0.09,-18.80,29.79,12.1125628.00,-8.30,5.13,-2.30,0.04,-0.01,-0.06,-21.89,29.62,13.2025640.00,-8.30,5.13,-2.30,0.04,-0.01,-0.06,-21.89,29.62,13.2025652.00,-8.34,5.04,-2.42,0.06,0.03,-0.06,-21.89,29.62,13.2025664.00,-7.95,5.29,-2.70,-0.01,0.06,-0.10,-21.89,29.62,13.2025677.00,-7.95,5.29,-2.70,-0.01,0.06,-0.10,-21.89,29.62,13.2025689.00,-8.14,5.24,-2.53,-0.03,0.04,-0.12,-21.89,29.62,13.2025701.00,-8.32,4.94,-2.36,0.05,0.05,-0.08,-21.89,29.62,13.2025712.00,-8.32,4.94,-2.36,0.05,0.05,-0.08,-21.89,29.62,13.2025725.00,-8.00,5.08,-2.84,0.07,0.07,-0.03,-21.89,29.62,13.2025736.00,-8.00,5.08,-2.84,0.07,0.07,-0.03,-21.89,29.62,13.2025749.00,-7.90,5.15,-2.89,0.04,0.01,-0.06,-21.48,26.90,11.3325760.00,-7.90,5.15,-2.89,0.04,0.01,-0.06,-21.48,26.90,11.3325774.00,-7.89,5.20,-2.95,0.02,-0.07,-0.12,-21.48,26.90,11.3325786.00,-8.44,5.12,-2.64,0.04,-0.14,-0.22,-21.48,26.90,11.3325797.00,-8.44,5.12,-2.64,0.04,-0.14,-0.22,-21.48,26.90,11.3325808.00,-8.55,4.71,-2.77,0.02,-0.10,-0.18,-21.48,26.90,11.3325821.00,-8.38,4.89,-2.61,-0.06,-0.08,-0.09,-21.48,26.90,11.3325833.00,-8.38,4.89,-2.61,-0.06,-0.08,-0.09,-21.48,26.90,11.3325845.00,-8.37,5.01,-2.53,-0.07,-0.06,-0.09,-21.48,26.90,11.3325856.00,-8.37,5.01,-2.53,-0.07,-0.06,-0.09,-21.48,26.90,11.3325871.00,-8.38,5.01,-2.65,-0.05,-0.04,-0.12,-22.31,26.90,11.3325883.00,-8.21,4.75,-2.83,-0.01,-0.02,-0.13,-22.31,26.90,11.3325895.00,-8.21,4.75,-2.83,-0.01,-0.02,-0.13,-22.31,26.90,11.3325906.00,-8.29,5.15,-2.46,-0.02,-0.04,-0.07,-22.31,26.90,11.3325919.00,-8.29,5.15,-2.46,-0.02,-0.04,-0.07,-22.31,26.90,11.3325931.00,-8.26,4.84,-2.49,0.05,-0.02,-0.07,-22.31,26.90,11.3325942.00,-8.31,4.85,-2.55,0.08,-0.01,-0.06,-22.31,26.90,11.3325954.00,-8.31,4.85,-2.55,0.08,-0.01,-0.06,-22.31,26.90,11.3325966.00,-8.33,4.66,-2.65,0.11,0.02,-0.05,-22.31,26.90,11.3325979.00,-8.33,4.66,-2.65,0.11,0.02,-0.05,-22.31,26.90,11.3325991.00,-8.30,4.71,-3.06,0.05,0.01,-0.02,-21.07,27.92,10.7026002.00,-8.29,4.76,-2.86,-0.06,-0.04,-0.01,-21.07,27.92,10.7026014.00,-8.29,4.76,-2.86,-0.06,-0.04,-0.01,-21.07,27.92,10.7026027.00,-8.31,4.88,-2.47,-0.05,-0.06,-0.00,-21.07,27.92,10.7026039.00,-8.31,4.88,-2.47,-0.05,-0.06,-0.00,-21.07,27.92,10.7026051.00,-8.27,4.80,-2.65,-0.01,-0.02,0.01,-21.07,27.92,10.7026062.00,-8.26,5.03,-2.82,-0.03,-0.02,0.02,-21.07,27.92,10.7026076.00,-8.26,5.03,-2.82,-0.03,-0.02,0.02,-21.07,27.92,10.7026087.00,-8.23,5.25,-2.40,-0.05,-0.02,-0.00,-21.07,27.92,10.7026098.00,-8.23,5.25,-2.40,-0.05,-0.02,-0.00,-21.07,27.92,10.7026110.00,-8.07,4.73,-2.62,0.07,0.04,-0.02,-21.07,27.92,10.7026123.00,-8.45,4.54,-2.97,0.14,0.05,0.01,-22.31,27.24,11.3326134.00,-8.45,4.54,-2.97,0.14,0.05,0.01,-22.31,27.24,11.3326145.00,-8.33,4.65,-2.98,0.07,0.00,-0.01,-22.31,27.24,11.3326157.00,-8.33,4.65,-2.98,0.07,0.00,-0.01,-22.31,27.24,11.3326170.00,-8.27,5.04,-2.76,-0.00,-0.04,-0.01,-22.31,27.24,11.3326181.00,-8.27,5.04,-2.76,-0.00,-0.04,-0.01,-22.31,27.24,11.3326192.00,-8.31,4.92,-2.63,0.05,-0.03,-0.03,-22.31,27.24,11.3326203.00,-8.31,4.59,-2.80,0.13,-0.00,-0.02,-22.31,27.24,11.3326216.00,-8.31,4.59,-2.80,0.13,-0.00,-0.02,-22.31,27.24,11.3326228.00,-8.29,4.65,-3.03,0.07,-0.03,-0.00,-22.31,27.24,11.3326239.00,-8.29,4.65,-3.03,0.07,-0.03,-0.00,-22.31,27.24,11.3326250.00,-8.31,4.83,-2.82,-0.04,-0.07,0.01,-23.34,26.73,10.5526264.00,-8.30,4.91,-2.63,-0.02,-0.06,0.00,-23.34,26.73,10.5526276.00,-8.30,4.91,-2.63,-0.02,-0.06,0.00,-23.34,26.73,10.5526288.00,-8.29,4.88,-2.65,0.06,-0.03,-0.01,-23.34,26.73,10.5526299.00,-8.29,4.88,-2.65,0.06,-0.03,-0.01,-23.34,26.73,10.5526313.00,-8.27,4.70,-2.97,0.08,-0.01,-0.00,-23.34,26.73,10.5526325.00,-8.17,4.66,-3.13,0.03,-0.04,0.03,-23.34,26.73,10.5526336.00,-8.17,4.66,-3.13,0.03,-0.04,0.03,-23.34,26.73,10.5526348.00,-8.36,4.89,-2.74,-0.03,-0.11,0.06,-23.34,26.73,10.5526362.00,-8.34,4.83,-2.75,-0.02,-0.08,0.04,-22.10,27.07,10.8626374.00,-8.34,4.83,-2.75,-0.02,-0.08,0.04,-22.10,27.07,10.8626386.00,-8.29,4.93,-2.69,-0.01,-0.05,0.02,-22.10,27.07,10.8626397.00,-8.29,4.93,-2.69,-0.01,-0.05,0.02,-22.10,27.07,10.8626410.00,-8.25,4.88,-2.97,0.01,-0.03,0.00,-22.10,27.07,10.8626422.00,-8.28,4.82,-2.90,-0.03,-0.05,-0.02,-22.10,27.07,10.8626434.00,-8.28,4.82,-2.90,-0.03,-0.05,-0.02,-22.10,27.07,10.8626446.00,-8.29,4.69,-2.88,-0.07,-0.06,-0.02,-22.10,27.07,10.8626459.00,-8.29,4.69,-2.88,-0.07,-0.06,-0.02,-22.10,27.07,10.8626471.00,-8.28,4.83,-2.82,-0.10,-0.08,-0.01,-22.10,27.07,10.8626483.00,-8.32,4.80,-2.79,-0.07,-0.08,-0.01,-23.55,27.92,11.3326495.00,-8.32,4.80,-2.79,-0.07,-0.08,-0.01,-23.55,27.92,11.3326508.00,-8.36,4.88,-2.90,-0.08,-0.08,-0.02,-23.55,27.92,11.3326519.00,-8.36,4.88,-2.90,-0.08,-0.08,-0.02,-23.55,27.92,11.3326531.00,-8.47,4.63,-2.86,-0.16,-0.09,-0.04,-23.55,27.92,11.3326543.00,-8.37,3.99,-2.43,-0.24,-0.02,-0.13,-23.55,27.92,11.3326556.00,-8.37,3.99,-2.43,-0.24,-0.02,-0.13,-23.55,27.92,11.3326567.00,-9.08,4.83,-1.83,-0.42,0.03,-0.17,-23.55,27.92,11.3326578.00,-9.08,4.83,-1.83,-0.42,0.03,-0.17,-23.55,27.92,11.3326590.00,-8.49,4.89,-3.62,-0.57,0.18,-0.27,-23.55,27.92,11.3326603.00,-8.00,5.62,-1.98,-0.62,0.25,-0.29,-23.55,27.92,11.3326614.00,-8.00,5.62,-1.98,-0.62,0.25,-0.29,-23.55,27.92,11.3326626.00,-7.72,5.81,-2.48,-0.08,0.47,-0.34,-23.34,29.11,11.1726638.00,-7.72,5.81,-2.48,-0.08,0.47,-0.34,-23.34,29.11,11.1726651.00,-7.51,4.04,-2.37,0.46,0.59,-0.26,-23.34,29.11,11.1726663.00,-8.43,4.55,-2.94,0.45,0.57,-0.08,-23.34,29.11,11.1726674.00,-8.43,4.55,-2.94,0.45,0.57,-0.08,-23.34,29.11,11.1726686.00,-8.02,4.07,-3.41,0.21,0.27,0.04,-23.34,29.11,11.1726699.00,-8.02,4.07,-3.41,0.21,0.27,0.04,-23.34,29.11,11.1726710.00,-8.21,4.73,-4.30,0.03,-0.18,0.30,-23.34,29.11,11.1726721.00,-8.21,4.73,-4.30,0.03,-0.18,0.30,-23.34,29.11,11.1726732.00,-8.48,4.57,-3.80,-0.22,-0.67,0.42,-23.34,29.11,11.1726744.00,-8.80,4.08,-3.57,-0.23,-0.84,0.33,-22.51,27.75,11.8026756.00,-8.80,4.08,-3.57,-0.23,-0.84,0.33,-22.51,27.75,11.8026768.00,-8.87,4.92,-1.89,-0.22,-0.78,0.21,-22.51,27.75,11.8026780.00,-8.87,4.92,-1.89,-0.22,-0.78,0.21,-22.51,27.75,11.8026792.00,-8.44,4.06,-3.55,-0.16,-0.55,0.04,-22.51,27.75,11.8026805.00,-8.44,5.69,-1.96,-0.47,-0.54,0.04,-22.51,27.75,11.8026817.00,-8.44,5.69,-1.96,-0.47,-0.54,0.04,-22.51,27.75,11.8026828.00,-8.39,5.06,-1.57,-0.48,-0.30,-0.05,-22.51,27.75,11.8026840.00,-8.39,5.06,-1.57,-0.48,-0.30,-0.05,-22.51,27.75,11.8026853.00,-8.00,4.93,-1.77,-0.44,0.05,-0.18,-22.51,27.75,11.8026865.00,-7.83,5.58,-2.41,-0.21,0.34,-0.20,-22.51,27.07,12.4226876.00,-7.83,5.58,-2.41,-0.21,0.34,-0.20,-22.51,27.07,12.4226888.00,-8.12,5.73,-2.07,0.04,0.33,-0.12,-22.51,27.07,12.4226892.00,-8.12,5.73,-2.07,0.04,0.33,-0.12,-22.51,27.07,12.4226971.00,-9.01,4.13,-4.01,-0.04,-0.29,0.09,-22.51,27.07,12.4227049.00,-7.80,5.46,-1.64,-0.08,-0.04,-0.18,-22.72,26.56,13.2027127.00,-7.97,5.03,-1.69,0.34,0.13,0.11,-21.27,28.43,12.4227217.00,-10.80,4.44,-2.02,-0.27,0.20,0.27,-21.27,28.43,12.4227229.00,-7.80,5.20,-3.23,-0.54,0.41,0.32,-21.27,28.43,12.4227240.00,-7.80,5.20,-3.23,-0.54,0.41,0.32,-21.27,28.43,12.4227252.00,-6.42,6.43,-3.47,-0.62,0.30,0.10,-22.10,26.05,11.8027265.00,-5.20,7.20,-2.47,-0.53,0.00,-0.41,-22.10,26.05,11.8027276.00,-5.20,7.20,-2.47,-0.53,0.00,-0.41,-22.10,26.05,11.8027288.00,-9.06,-0.76,-1.94,0.04,-0.09,-1.04,-22.10,26.05,11.8027300.00,-9.06,-0.76,-1.94,0.04,-0.09,-1.04,-22.10,26.05,11.8027313.00,-7.87,6.76,-2.52,-0.35,0.03,-0.28,-22.10,26.05,11.8027324.00,-8.62,2.59,-2.59,-0.05,0.04,-0.42,-22.10,26.05,11.8027336.00,-8.62,2.59,-2.59,-0.05,0.04,-0.42,-22.10,26.05,11.8027348.00,-6.76,5.40,-3.83,-0.12,0.07,0.25,-22.10,26.05,11.8027361.00,-6.76,5.40,-3.83,-0.12,0.07,0.25,-22.10,26.05,11.8027372.00,-6.84,7.46,-3.35,-0.12,-0.13,0.32,-23.34,27.75,13.6727382.00,-8.49,5.02,-3.54,0.10,-0.20,-0.08,-23.34,27.75,13.6727394.00,-8.49,5.02,-3.54,0.10,-0.20,-0.08,-23.34,27.75,13.6727408.00,-9.09,4.31,-2.33,-0.02,-0.27,-0.14,-23.34,27.75,13.6727420.00,-9.09,4.31,-2.33,-0.02,-0.27,-0.14,-23.34,27.75,13.6727432.00,-8.93,4.32,-2.62,-0.09,-0.21,-0.18,-23.34,27.75,13.6727443.00,-8.75,5.48,-2.08,-0.22,-0.15,-0.07,-23.34,27.75,13.6727456.00,-8.75,5.48,-2.08,-0.22,-0.15,-0.07,-23.34,27.75,13.6727468.00,-8.31,5.34,-2.32,-0.08,-0.04,-0.05,-23.34,27.75,13.6727480.00,-8.31,5.34,-2.32,-0.08,-0.04,-0.05,-23.34,27.75,13.6727491.00,-8.57,5.85,-1.71,0.15,-0.02,-0.05,-25.41,27.41,12.7327505.00,-8.09,3.99,-3.27,0.47,0.11,-0.07,-25.41,27.41,12.7327516.00,-8.09,3.99,-3.27,0.47,0.11,-0.07,-25.41,27.41,12.7327527.00,-8.28,3.44,-3.01,0.45,0.01,0.10,-25.41,27.41,12.7327538.00,-8.28,3.44,-3.01,0.45,0.01,0.10,-25.41,27.41,12.7327551.00,-8.92,3.80,-3.45,0.12,-0.27,0.30,-25.41,27.41,12.7327563.00,-9.22,4.22,-3.08,-0.22,-0.38,0.31,-25.41,27.41,12.7327574.00,-9.22,4.22,-3.08,-0.22,-0.38,0.31,-25.41,27.41,12.7327585.00,-9.18,5.38,-2.28,-0.57,-0.37,0.20,-25.41,27.41,12.7327598.00,-9.18,5.38,-2.28,-0.57,-0.37,0.20,-25.41,27.41,12.7327610.00,-8.98,4.76,-1.93,-0.61,-0.16,-0.06,-22.51,27.07,13.0527622.00,-8.98,4.76,-1.93,-0.61,-0.16,-0.06,-22.51,27.07,13.0527633.00,-8.35,5.25,-2.27,-0.46,0.14,-0.11,-22.51,27.07,13.0527648.00,-6.58,5.99,