time,ax,ay,az,gx,gy,gz,mx,my,mz1.00,-0.48,6.11,-7.85,-0.03,-0.04,-0.01,10.74,0.37,-14.0013.00,-0.48,6.10,-7.84,-0.03,-0.04,-0.01,10.74,0.37,-14.0025.00,-0.48,6.10,-7.84,-0.03,-0.04,-0.01,10.74,0.37,-14.0087.00,-0.46,6.12,-7.85,-0.03,-0.04,-0.01,12.40,0.71,-14.6298.00,-0.49,6.14,-7.81,-0.03,-0.04,-0.01,12.40,0.71,-14.62108.00,-0.51,6.14,-7.83,-0.02,-0.04,-0.01,12.40,0.71,-14.62120.00,-0.51,6.14,-7.83,-0.02,-0.04,-0.01,12.40,0.71,-14.62132.00,-0.47,6.12,-7.84,-0.02,-0.04,-0.01,12.40,0.71,-14.62145.00,-0.47,6.12,-7.84,-0.02,-0.04,-0.01,12.40,0.71,-14.62156.00,-0.46,6.09,-7.86,-0.02,-0.04,-0.01,12.40,0.71,-14.62167.00,-0.46,6.09,-7.86,-0.02,-0.04,-0.01,12.40,0.71,-14.62179.00,-0.50,6.10,-7.86,-0.03,-0.04,-0.01,11.36,0.20,-14.47192.00,-0.51,6.13,-7.86,-0.03,-0.04,-0.01,11.36,0.20,-14.47204.00,-0.51,6.13,-7.86,-0.03,-0.04,-0.01,11.36,0.20,-14.47216.00,-0.47,6.13,-7.83,-0.03,-0.04,-0.01,11.36,0.20,-14.47227.00,-0.47,6.13,-7.83,-0.03,-0.04,-0.01,11.36,0.20,-14.47240.00,-0.46,6.12,-7.84,-0.03,-0.04,-0.01,11.36,0.20,-14.47251.00,-0.49,6.13,-7.83,-0.02,-0.04,-0.01,11.36,0.20,-14.47263.00,-0.49,6.13,-7.83,-0.02,-0.04,-0.01,11.36,0.20,-14.47275.00,-0.49,6.08,-7.86,-0.02,-0.04,-0.01,11.36,0.20,-14.47288.00,-0.48,6.11,-7.86,-0.02,-0.04,-0.01,11.57,0.37,-14.47300.00,-0.48,6.11,-7.86,-0.02,-0.04,-0.01,11.57,0.37,-13.69312.00,-0.48,6.13,-7.83,-0.02,-0.04,-0.01,11.57,0.37,-13.69323.00,-0.48,6.13,-7.83,-0.02,-0.04,-0.01,11.57,0.37,-13.69336.00,-0.49,6.12,-7.84,-0.02,-0.04,-0.00,11.57,0.37,-13.69348.00,-0.50,6.09,-7.85,-0.02,-0.04,-0.01,11.57,0.37,-13.69360.00,-0.50,6.09,-7.85,-0.02,-0.04,-0.01,11.57,0.37,-13.69372.00,-0.50,6.09,-7.85,-0.02,-0.03,-0.00,11.57,0.37,-13.69377.00,-0.50,6.09,-7.85,-0.02,-0.03,-0.00,11.57,0.37,-13.69454.00,-0.50,6.13,-7.85,-0.02,-0.04,-0.01,13.02,-0.14,-13.84533.00,0.34,5.47,-8.70,0.02,-0.31,0.35,13.02,-0.14,-13.84611.00,-3.68,15.48,-11.44,2.70,0.38,-0.04,11.16,0.71,-14.62691.00,0.24,-2.85,-9.93,6.45,-4.85,-1.53,9.71,-19.87,-13.22780.00,-3.27,2.29,-3.34,-4.64,-7.97,-3.62,9.71,-19.87,-13.22792.00,-4.91,-0.51,2.32,-5.29,-6.76,-5.28,-13.22,-18.34,-10.56804.00,-4.91,-0.51,2.32,-5.29,-6.76,-5.28,-13.22,-18.34,-10.56816.00,-4.64,-1.35,3.29,-6.64,-4.13,-6.29,-13.22,-18.34,-10.56829.00,-3.73,-0.98,3.23,-4.06,-0.60,-6.30,-13.22,-18.34,-10.56840.00,-3.73,-0.98,3.23,-4.06,-0.60,-6.30,-13.22,-18.34,-10.56852.00,-3.17,-21.24,-14.32,2.50,2.47,-5.64,-13.22,-18.34,-10.56862.00,-3.17,-21.24,-14.32,2.50,2.47,-5.64,-13.22,-18.34,-10.56876.00,-3.28,-8.94,-5.17,-0.23,0.50,-1.70,-13.22,-18.34,-10.56888.00,-3.28,-8.94,-5.17,-0.23,0.50,-1.70,-13.22,-18.34,-10.56900.00,-5.34,0.64,-3.62,-4.98,-0.88,0.54,-13.22,-18.34,-10.56911.00,-6.26,5.83,-11.19,-4.13,-0.85,-0.88,-13.22,-18.34,-10.56925.00,-6.26,5.83,-11.19,-4.13,-0.85,-0.88,-13.22,-18.34,-10.56936.00,-6.30,0.25,-6.70,-0.81,-1.35,-3.11,-10.53,-12.73,-15.09946.00,-6.30,0.25,-6.70,-0.81,-1.35,-3.11,-10.53,-12.73,-15.09959.00,-3.28,-7.16,-0.85,-0.44,-2.18,-3.95,-10.53,-12.73,-15.09973.00,-5.67,-11.86,-0.26,-0.73,-1.04,-1.86,-10.53,-12.73,-15.09985.00,-5.67,-11.86,-0.26,-0.73,-1.04,-1.86,-10.53,-12.73,-15.09997.00,-6.91,-3.95,-2.96,-3.74,0.00,0.73,-10.53,-12.73,-15.091009.00,-10.79,1.99,-7.92,-4.71,0.33,1.22,-10.53,-12.73,-15.091023.00,-10.79,1.99,-7.92,-4.71,0.33,1.22,-10.53,-12.73,-15.091035.00,-14.22,5.79,-10.72,-1.39,0.46,0.71,-10.53,-12.73,-15.091046.00,-14.22,5.79,-10.72,-1.39,0.46,0.71,-10.53,-12.73,-15.091058.00,-11.74,1.71,-7.05,4.76,0.77,0.05,-11.57,-5.42,-14.621071.00,-4.87,-3.29,-6.54,6.40,0.48,-0.57,-11.57,-5.42,-14.621081.00,-4.87,-3.29,-6.54,6.40,0.48,-0.57,-11.57,-5.42,-14.621093.00,-6.35,-5.27,-6.76,5.03,-0.46,-0.65,-11.57,-5.42,-14.621105.00,-6.35,-5.27,-6.76,5.03,-0.46,-0.65,-11.57,-5.42,-14.621118.00,-4.67,-3.68,-3.92,4.25,-1.08,-0.26,-11.57,-5.42,-14.621129.00,-5.92,-5.83,-1.50,3.41,-1.16,-0.07,-11.57,-5.42,-14.621141.00,-5.92,-5.83,-1.50,3.41,-1.16,-0.07,-11.57,-5.42,-14.621152.00,-6.56,-5.23,-3.35,1.48,-1.00,0.30,-11.57,-5.42,-14.621165.00,-6.56,-5.23,-3.35,1.48,-1.00,0.30,-11.57,-5.42,-14.621176.00,-7.39,-3.97,-5.03,0.88,-0.80,0.55,-13.63,-22.77,-9.001187.00,-7.39,-3.97,-5.03,0.88,-0.80,0.55,-13.63,-22.77,-9.001199.00,-10.40,0.63,-6.81,1.81,-0.64,0.42,-13.63,-22.77,-9.001212.00,-7.39,-4.81,-4.64,3.47,-0.65,-0.16,-13.63,-22.77,-9.001222.00,-7.39,-4.81,-4.64,3.47,-0.65,-0.16,-13.63,-22.77,-9.001234.00,-8.18,-5.49,-4.05,2.46,-1.06,-0.23,-13.63,-22.77,-9.001246.00,-8.18,-5.49,-4.05,2.46,-1.06,-0.23,-13.63,-22.77,-9.001259.00,-9.74,-5.12,0.54,1.99,-1.33,-0.14,-13.63,-22.77,-9.001270.00,-9.08,-7.14,2.74,0.44,-0.67,-0.20,-13.63,-22.77,-9.001280.00,-9.08,-7.14,2.74,0.44,-0.67,-0.20,-13.63,-22.77,-9.001292.00,-8.25,-6.23,-0.72,-1.38,0.13,0.09,-15.90,-28.04,-4.771306.00,-8.25,-6.23,-0.72,-1.38,0.13,0.09,-15.90,-28.04,-4.771317.00,-7.86,-3.60,-3.16,-2.11,0.17,0.42,-15.90,-28.04,-4.771328.00,-7.86,-3.60,-3.16,-2.11,0.17,0.42,-15.90,-28.04,-4.771339.00,-7.86,-3.63,-4.19,-1.73,-0.03,0.35,-15.90,-28.04,-4.771353.00,-8.69,-4.67,-2.96,-0.61,-0.03,0.20,-15.90,-28.04,-4.771365.00,-8.69,-4.67,-2.96,-0.61,-0.03,0.20,-15.90,-28.04,-4.771375.00,-8.82,-4.82,-3.05,0.05,0.08,0.06,-15.90,-28.04,-4.771387.00,-8.82,-4.82,-3.05,0.05,0.08,0.06,-15.90,-28.04,-4.771401.00,-8.40,-4.21,-3.27,0.44,0.10,-0.05,-15.90,-28.04,-4.771412.00,-7.61,-4.83,-3.51,0.96,0.16,-0.21,-14.04,-26.17,-5.871423.00,-7.61,-4.83,-3.51,0.96,0.16,-0.21,-14.04,-26.17,-5.871434.00,-5.95,-6.35,-2.27,1.31,0.11,-0.26,-14.04,-26.17,-5.871448.00,-5.95,-6.35,-2.27,1.31,0.11,-0.26,-14.04,-26.17,-5.871460.00,-8.87,-5.34,-3.55,-0.07,-0.14,-0.21,-14.04,-26.17,-5.871472.00,-8.20,-5.00,-2.83,0.23,-0.03,0.02,-14.04,-26.17,-5.871484.00,-8.20,-5.00,-2.83,0.23,-0.03,0.02,-14.04,-26.17,-5.871497.00,-7.74,-6.20,-1.65,0.48,-0.02,0.09,-14.04,-26.17,-5.871508.00,-7.74,-6.20,-1.65,0.48,-0.02,0.09,-14.04,-26.17,-5.871519.00,-7.91,-5.88,-2.06,-0.12,-0.06,0.31,-14.04,-26.17,-5.871530.00,-8.56,-5.39,-2.78,-0.58,-0.08,0.46,-14.04,-26.17,-5.871544.00,-8.56,-5.39,-2.78,-0.58,-0.08,0.46,-14.04,-26.17,-5.871556.00,-9.44,-5.23,-2.16,-0.83,0.05,0.45,-15.08,-26.34,-4.461566.00,-9.44,-5.23,-2.16,-0.83,0.05,0.45,-15.08,-26.34,-4.461577.00,-8.28,-4.85,-2.65,-1.12,0.36,0.37,-15.08,-26.34,-4.461590.00,-7.08,-4.09,-4.52,-1.06,0.45,0.36,-15.08,-26.34,-4.461604.00,-7.08,-4.09,-4.52,-1.06,0.45,0.36,-15.08,-26.34,-4.461615.00,-8.08,-3.37,-4.59,-0.69,0.22,0.33,-15.08,-26.34,-4.461626.00,-8.08,-3.37,-4.59,-0.69,0.22,0.33,-15.08,-26.34,-4.461639.00,-8.58,-3.96,-3.19,-0.43,0.02,0.14,-15.08,-26.34,-4.461650.00,-8.53,-4.39,-2.95,-0.41,0.03,0.05,-15.08,-26.34,-4.461662.00,-8.53,-4.39,-2.95,-0.41,0.03,0.05,-15.08,-26.34,-4.461674.00,-8.01,-3.98,-4.17,-0.44,0.05,0.01,-14.87,-24.47,-5.871687.00,-8.01,-3.98,-4.17,-0.44,0.05,0.01,-14.87,-24.47,-5.871699.00,-7.35,-4.00,-4.85,-0.12,-0.04,-0.09,-14.87,-24.47,-5.871711.00,-7.84,-4.48,-3.76,0.28,-0.19,-0.15,-14.87,-24.47,-5.871721.00,-7.84,-4.48,-3.76,0.28,-0.19,-0.15,-14.87,-24.47,-5.871735.00,-8.19,-4.90,-3.04,0.39,-0.18,-0.10,-14.87,-24.47,-5.871747.00,-8.19,-4.90,-3.04,0.39,-0.18,-0.10,-14.87,-24.47,-5.871758.00,-8.27,-4.69,-3.35,0.31,-0.08,0.01,-14.87,-24.47,-5.871770.00,-8.44,-4.36,-3.35,0.23,-0.06,0.06,-14.87,-24.47,-5.871783.00,-8.44,-4.36,-3.35,0.23,-0.06,0.06,-14.87,-24.47,-5.871795.00,-8.09,-4.47,-3.48,0.23,-0.07,0.02,-14.66,-23.96,-8.841807.00,-8.09,-4.47,-3.48,0.23,-0.07,0.02,-14.66,-23.96,-8.841818.00,-8.10,-4.66,-3.34,0.20,-0.08,-0.00,-14.66,-23.96,-8.841831.00,-8.52,-4.64,-3.17,0.17,-0.05,0.00,-14.66,-23.96,-8.841843.00,-8.52,-4.64,-3.17,0.17,-0.05,0.00,-14.66,-23.96,-8.841855.00,-8.73,-4.38,-3.42,0.06,0.04,-0.01,-14.66,-23.96,-8.841866.00,-8.73,-4.38,-3.42,0.06,0.04,-0.01,-14.66,-23.96,-8.841880.00,-8.15,-4.65,-3.41,-0.01,0.11,-0.06,-14.66,-23.96,-8.841892.00,-7.91,-4.95,-3.65,-0.08,0.11,0.00,-14.66,-23.96,-8.841903.00,-7.91,-4.95,-3.65,-0.08,0.11,0.00,-14.66,-23.96,-8.841914.00,-8.15,-4.22,-4.64,-0.03,0.16,0.11,-14.66,-25.32,-6.961928.00,-8.15,-4.22,-4.64,-0.03,0.16,0.11,-14.66,-25.32,-6.961940.00,-8.10,-4.15,-4.65,0.27,0.15,0.08,-14.66,-25.32,-6.961951.00,-8.81,-4.28,-3.85,0.52,0.08,0.05,-14.66,-25.32,-6.961963.00,-8.81,-4.28,-3.85,0.52,0.08,0.05,-14.66,-25.32,-6.961975.00,-7.82,-5.01,-2.52,0.43,0.10,0.06,-14.66,-25.32,-6.961987.00,-7.82,-5.01,-2.52,0.43,0.10,0.06,-14.66,-25.32,-6.961999.00,-7.50,-5.20,-1.97,0.31,0.03,0.23,-14.66,-25.32,-6.962011.00,-8.04,-5.05,-1.97,0.15,-0.13,0.33,-14.66,-25.32,-6.962022.00,-8.04,-5.05,-1.97,0.15,-0.13,0.33,-14.66,-25.32,-6.962036.00,-7.87,-4.81,-2.69,-0.07,-0.19,0.30,-14.66,-25.32,-6.962048.00,-7.87,-4.81,-2.69,-0.07,-0.19,0.30,-14.66,-25.32,-6.962060.00,-8.33,-4.31,-3.33,-0.13,-0.17,0.24,-15.28,-25.83,-5.242071.00,-8.76,-4.13,-3.32,-0.07,-0.16,0.14,-15.28,-25.83,-5.242084.00,-8.76,-4.13,-3.32,-0.07,-0.16,0.14,-15.28,-25.83,-5.242096.00,-8.72,-3.84,-3.56,0.01,-0.12,0.03,-15.28,-25.83,-5.242108.00,-8.72,-3.84,-3.56,0.01,-0.12,0.03,-15.28,-25.83,-5.242119.00,-8.07,-4.39,-3.25,0.06,-0.13,-0.07,-15.28,-25.83,-5.242133.00,-8.08,-4.60,-3.18,0.04,-0.16,-0.04,-15.28,-25.83,-5.242145.00,-8.08,-4.60,-3.18,0.04,-0.16,-0.04,-15.28,-25.83,-5.242156.00,-8.16,-4.74,-3.06,-0.04,-0.16,0.02,-15.28,-25.83,-5.242167.00,-8.16,-4.74,-3.06,-0.04,-0.16,0.02,-15.28,-25.83,-5.242181.00,-7.63,-4.99,-3.34,-0.15,-0.14,0.11,-14.25,-23.96,-6.342193.00,-7.85,-4.61,-3.67,-0.15,-0.15,0.24,-14.25,-23.96,-6.342205.00,-7.85,-4.61,-3.67,-0.15,-0.15,0.24,-14.25,-23.96,-6.342217.00,-8.26,-4.43,-3.25,-0.03,-0.23,0.30,-14.25,-23.96,-6.342229.00,-9.31,-3.90,-2.59,-0.01,-0.22,0.21,-14.25,-23.96,-6.342241.00,-9.31,-3.90,-2.59,-0.01,-0.22,0.21,-14.25,-23.96,-6.342253.00,-8.56,-4.27,-2.95,-0.11,-0.07,0.07,-14.25,-23.96,-6.342265.00,-8.56,-4.27,-2.95,-0.11,-0.07,0.07,-14.25,-23.96,-6.342278.00,-8.37,-4.18,-3.52,-0.12,-0.03,0.07,-14.25,-23.96,-6.342290.00,-8.38,-4.20,-3.35,-0.04,-0.05,0.04,-15.49,-24.98,-6.962302.00,-8.38,-4.20,-3.35,-0.04,-0.05,0.04,-15.49,-24.98,-6.962314.00,-8.51,-3.94,-3.37,0.07,-0.06,0.02,-15.49,-24.98,-6.962328.00,-8.51,-3.94,-3.37,0.07,-0.06,0.02,-15.49,-24.98,-6.962340.00,-9.20,-4.12,-2.68,0.22,0.02,-0.01,-15.49,-24.98,-6.962351.00,-8.73,-3.70,-2.91,0.13,0.15,-0.08,-15.49,-24.98,-6.962362.00,-8.73,-3.70,-2.91,0.13,0.15,-0.08,-15.49,-24.98,-6.962375.00,-7.45,-5.03,-3.06,0.04,0.10,-0.14,-15.49,-24.98,-6.962387.00,-7.45,-5.03,-3.06,0.04,0.10,-0.14,-15.49,-24.98,-6.962399.00,-7.59,-4.80,-3.42,0.01,0.01,0.01,-15.49,-24.98,-6.962410.00,-7.61,-4.90,-3.57,-0.00,-0.11,0.14,-16.94,-24.47,-5.872424.00,-7.61,-4.90,-3.57,-0.00,-0.11,0.14,-16.94,-24.47,-5.872436.00,-9.10,-3.78,-3.51,-0.03,-0.22,0.22,-16.94,-24.47,-5.872447.00,-9.10,-3.78,-3.51,-0.03,-0.22,0.22,-16.94,-24.47,-5.872458.00,-8.73,-4.25,-2.17,-0.09,-0.16,0.10,-16.94,-24.47,-5.872471.00,-8.53,-3.93,-3.10,-0.16,-0.03,0.07,-16.94,-24.47,-5.872483.00,-8.53,-3.93,-3.10,-0.16,-0.03,0.07,-16.94,-24.47,-5.872494.00,-8.41,-4.35,-3.36,-0.11,-0.01,0.04,-16.94,-24.47,-5.872506.00,-8.41,-4.35,-3.36,-0.11,-0.01,0.04,-16.94,-24.47,-5.872519.00,-8.39,-4.34,-3.31,-0.13,-0.05,0.05,-16.94,-24.47,-5.872529.00,-8.47,-3.88,-3.25,-0.12,-0.06,0.06,-16.94,-24.47,-5.872541.00,-8.47,-3.88,-3.25,-0.12,-0.06,0.06,-16.94,-24.47,-5.872553.00,-8.51,-3.97,-3.19,-0.03,-0.06,0.02,-16.94,-24.13,-6.812565.00,-8.51,-3.97,-3.19,-0.03,-0.06,0.02,-16.94,-24.13,-6.812577.00,-8.42,-4.42,-3.16,0.01,-0.06,-0.01,-16.94,-24.13,-6.812589.00,-8.42,-4.42,-3.16,0.01,-0.06,-0.01,-16.94,-24.13,-6.812601.00,-8.43,-4.34,-3.11,-0.02,-0.07,0.02,-16.94,-24.13,-6.812615.00,-8.43,-3.94,-3.44,-0.02,-0.08,0.04,-16.94,-24.13,-6.812627.00,-8.43,-3.94,-3.44,-0.02,-0.08,0.04,-16.94,-24.13,-6.812639.00,-8.39,-3.73,-3.63,0.11,-0.11,-0.02,-16.94,-24.13,-6.812651.00,-8.07,-3.57,-3.02,0.26,-0.13,-0.13,-16.94,-24.13,-6.812664.00,-8.07,-3.57,-3.02,0.26,-0.13,-0.13,-16.94,-24.13,-6.812676.00,-8.65,-4.24,-3.27,0.28,-0.05,-0.24,-17.76,-23.45,-6.182688.00,-8.65,-4.24,-3.27,0.28,-0.05,-0.24,-17.76,-23.45,-6.182699.00,-8.37,-4.51,-2.13,0.19,-0.05,-0.18,-17.76,-23.45,-6.182713.00,-8.51,-5.24,-2.23,-0.03,0.14,-0.03,-17.76,-23.45,-6.182725.00,-8.51,-5.24,-2.23,-0.03,0.14,-0.03,-17.76,-23.45,-6.182736.00,-8.73,-4.19,-2.77,-0.34,0.34,0.25,-17.76,-23.45,-6.182748.00,-8.73,-4.19,-2.77,-0.34,0.34,0.25,-17.76,-23.45,-6.182762.00,-8.88,-4.66,-2.81,-0.39,0.44,0.42,-17.76,-23.45,-6.182774.00,-8.67,-3.40,-3.65,-0.35,0.40,0.55,-17.76,-23.45,-6.182786.00,-8.67,-3.40,-3.65,-0.35,0.40,0.55,-17.76,-23.45,-6.182798.00,-8.68,-4.41,-3.25,-0.35,0.16,0.39,-16.11,-23.45,-6.812811.00,-8.28,-3.12,-3.29,-0.59,0.08,0.43,-16.11,-23.45,-6.812822.00,-8.28,-3.12,-3.29,-0.59,0.08,0.43,-16.11,-23.45,-6.812832.00,-8.68,-3.04,-2.54,-0.66,-0.03,0.24,-16.11,-23.45,-6.812844.00,-8.68,-3.04,-2.54,-0.66,-0.03,0.24,-16.11,-23.45,-6.812858.00,-8.38,-3.10,-3.05,-0.66,-0.19,-0.01,-16.11,-23.45,-6.812868.00,-8.38,-3.10,-3.05,-0.66,-0.19,-0.01,-16.11,-23.45,-6.812880.00,-7.98,-3.21,-5.39,-0.49,-0.21,-0.20,-16.11,-23.45,-6.812892.00,-7.98,-3.89,-4.45,-0.06,-0.32,-0.32,-16.11,-23.45,-6.812905.00,-7.98,-3.89,-4.45,-0.06,-0.32,-0.32,-16.11,-23.45,-6.812917.00,-8.47,-3.62,-3.45,0.14,-0.22,-0.24,-15.90,-22.94,-7.592928.00,-8.47,-3.62,-3.45,0.14,-0.22,-0.24,-15.90,-22.94,-7.592940.00,-8.62,-3.91,-2.94,0.14,-0.10,-0.15,-15.90,-22.94,-7.592944.00,-8.62,-3.91,-2.94,0.14,-0.10,-0.15,-15.90,-22.94,-7.593022.00,-8.37,-3.70,-3.90,-0.18,-0.03,0.00,-15.90,-22.94,-7.593101.00,-8.50,-3.95,-3.56,-0.25,-0.01,-0.04,-14.46,-22.08,-8.373178.00,-11.30,-2.92,-2.66,0.07,0.13,-0.18,-16.94,-23.11,-7.743270.00,-8.06,-3.90,-3.91,0.32,-0.15,0.35,-16.94,-23.11,-7.743282.00,-8.06,-3.90,-3.91,0.32,-0.15,0.35,-16.94,-23.11,-7.743294.00,-8.32,-4.00,-3.00,0.29,-0.27,0.35,-15.70,-22.08,-7.743306.00,-8.32,-4.00,-3.00,0.29,-0.27,0.35,-15.70,-22.08,-7.743319.00,-7.91,-4.22,-3.74,0.11,-0.33,0.35,-15.70,-22.08,-7.743331.00,-10.18,-3.53,-2.86,-0.03,-0.38,0.33,-15.70,-22.08,-7.743343.00,-10.18,-3.53,-2.86,-0.03,-0.38,0.33,-15.70,-22.08,-7.743354.00,-8.65,-3.56,-3.35,-0.26,-0.10,0.24,-15.70,-22.08,-7.743367.00,-8.65,-3.56,-3.35,-0.26,-0.10,0.24,-15.70,-22.08,-7.743379.00,-8.54,-4.06,-2.99,-0.16,-0.01,0.24,-15.70,-22.08,-7.743391.00,-8.52,-3.88,-3.15,-0.11,0.20,0.41,-15.70,-22.08,-7.743403.00,-8.52,-3.88,-3.15,-0.11,0.20,0.41,-15.70,-22.08,-7.743417.00,-8.72,-2.77,-4.35,-0.03,0.14,0.32,-15.90,-21.57,-7.593429.00,-8.72,-2.77,-4.35,-0.03,0.14,0.32,-15.90,-21.57,-7.593439.00,-8.46,-4.04,-3.09,0.24,0.08,0.20,-15.90,-21.57,-7.593451.00,-8.80,-1.76,-4.98,0.21,0.14,0.19,-15.90,-21.57,-7.593465.00,-8.80,-1.76,-4.98,0.21,0.14,0.19,-15.90,-21.57,-7.593476.00,-8.99,-3.59,-3.42,0.39,-0.11,-0.17,-15.90,-21.57,-7.593488.00,-8.99,-3.59,-3.42,0.39,-0.11,-0.17,-15.90,-21.57,-7.593500.00,-10.53,-2.60,-2.13,0.12,-0.12,-0.53,-15.90,-21.57,-7.593513.00,-8.20,-4.70,-2.02,-0.08,0.11,-0.83,-15.90,-21.57,-7.593524.00,-8.20,-4.70,-2.02,-0.08,0.11,-0.83,-15.90,-21.57,-7.593536.00,-7.20,-4.51,-4.66,-0.32,0.20,-0.58,-15.90,-21.57,-7.593548.00,-7.20,-4.51,-4.66,-0.32,0.20,-0.58,-15.90,-21.57,-7.593561.00,-6.34,-4.96,-5.35,-0.29,0.05,-0.31,-15.28,-22.77,-9.003571.00,-6.83,-4.75,-4.93,-0.16,-0.17,0.02,-15.28,-22.77,-9.003583.00,-6.83,-4.75,-4.93,-0.16,-0.17,0.02,-15.28,-22.77,-9.003594.00,-6.83,-4.72,-4.40,0.00,-0.32,0.30,-15.28,-22.77,-9.003608.00,-6.83,-4.72,-4.40,0.00,-0.32,0.30,-15.28,-22.77,-9.003620.00,-7.82,-4.19,-4.13,0.16,-0.49,0.56,-15.28,-22.77,-9.003631.00,-11.40,-3.03,-1.51,0.14,-0.53,0.54,-15.28,-22.77,-9.003643.00,-11.40,-3.03,-1.51,0.14,-0.53,0.54,-15.28,-22.77,-9.003656.00,-8.94,-3.25,-2.55,-0.28,-0.11,0.25,-15.28,-22.77,-9.003666.00,-8.94,-3.25,-2.55,-0.28,-0.11,0.25,-15.28,-22.77,-9.003678.00,-8.72,-3.28,-4.02,-0.34,0.03,0.17,-16.94,-21.06,-8.063690.00,-8.71,-3.59,-3.76,-0.28,-0.06,0.11,-16.94,-21.06,-8.063704.00,-8.71,-3.59,-3.76,-0.28,-0.06,0.11,-16.94,-21.06,-8.063715.00,-8.63,-2.83,-3.99,-0.32,-0.12,0.08,-16.94,-21.06,-8.063725.00,-8.63,-2.83,-3.99,-0.32,-0.12,0.08,-16.94,-21.06,-8.063737.00,-8.34,-2.94,-3.90,-0.15,-0.20,-0.04,-16.94,-21.06,-8.063751.00,-8.35,-3.51,-4.29,0.09,-0.14,-0.08,-16.94,-21.06,-8.063763.00,-8.35,-3.51,-4.29,0.09,-0.14,-0.08,-16.94,-21.06,-8.063774.00,-8.46,-3.41,-3.95,0.22,-0.14,-0.07,-16.94,-21.06,-8.063785.00,-8.46,-3.41,-3.95,0.22,-0.14,-0.07,-16.94,-21.06,-8.063798.00,-8.41,-4.04,-3.02,0.28,-0.12,-0.06,-17.76,-21.06,-8.063810.00,-8.41,-4.04,-3.02,0.28,-0.12,-0.06,-17.76,-21.06,-8.063823.00,-8.91,-3.51,-3.44,0.10,0.06,0.10,-17.76,-21.06,-8.063834.00,-8.68,-4.67,-1.88,-0.08,0.05,0.13,-17.76,-21.06,-8.063846.00,-8.68,-4.67,-1.88,-0.08,0.05,0.13,-17.76,-21.06,-8.063858.00,-8.90,-2.85,-3.93,-0.44,0.24,0.33,-17.76,-21.06,-8.063870.00,-8.90,-2.85,-3.93,-0.44,0.24,0.33,-17.76,-21.06,-8.063881.00,-9.10,-3.16,-3.65,-0.55,0.13,0.28,-17.76,-21.06,-8.063894.00,-8.73,-2.89,-3.03,-0.57,-0.01,0.22,-17.76,-21.06,-8.063906.00,-8.73,-2.89,-3.03,-0.57,-0.01,0.22,-17.76,-21.06,-8.063918.00,-8.57,-2.76,-4.65,-0.52,-0.13,0.03,-16.73,-20.55,-8.533929.00,-8.57,-2.76,-4.65,-0.52,-0.13,0.03,-16.73,-20.55,-8.533942.00,-8.20,-2.59,-5.08,-0.25,-0.17,-0.11,-16.73,-20.55,-8.533954.00,-8.22,-3.64,-4.80,0.00,-0.16,-0.12,-16.73,-20.55,-8.533965.00,-8.22,-3.64,-4.80,0.00,-0.16,-0.12,-16.73,-20.55,-8.533975.00,-8.45,-3.00,-4.22,0.13,-0.16,-0.04,-16.73,-20.55,-8.533989.00,-8.45,-3.00,-4.22,0.13,-0.16,-0.04,-16.73,-20.55,-8.534000.00,-8.68,-3.76,-3.47,0.16,-0.15,-0.04,-16.73,-20.55,-8.534012.00,-9.04,-3.31,-3.52,-0.03,-0.00,0.13,-16.73,-20.55,-8.534024.00,-9.04,-3.31,-3.52,-0.03,-0.00,0.13,-16.73,-20.55,-8.534036.00,-8.79,-3.76,-2.35,-0.17,-0.02,0.15,-16.73,-20.55,-8.534048.00,-8.79,-3.76,-2.35,-0.17,-0.02,0.15,-16.73,-20.55,-8.534060.00,-8.73,-4.25,-2.72,-0.30,0.05,0.19,-17.97,-20.21,-8.844072.00,-8.82,-2.33,-4.56,-0.46,0.12,0.30,-17.97,-20.21,-8.844085.00,-8.82,-2.33,-4.56,-0.46,0.12,0.30,-17.97,-20.21,-8.844097.00,-8.89,-2.15,-4.41,-0.23,0.05,0.15,-17.97,-20.21,-8.844109.00,-8.89,-2.15,-4.41,-0.23,0.05,0.15,-17.97,-20.21,-8.844121.00,-8.77,-2.07,-4.44,0.09,-0.02,-0.06,-17.97,-20.21,-8.844134.00,-12.43,-2.06,-1.16,0.26,0.06,-0.43,-17.97,-20.21,-8.844146.00,-12.43,-2.06,-1.16,0.26,0.06,-0.43,-17.97,-20.21,-8.844158.00,-7.10,-3.61,-3.44,-0.11,0.58,-0.92,-17.97,-20.21,-8.844170.00,-5.12,-4.43,-7.36,-0.19,0.28,-0.86,-17.35,-21.74,-9.624184.00,-5.12,-4.43,-7.36,-0.19,0.28,-0.86,-17.35,-21.74,-9.624196.00,-4.10,-6.37,-7.59,0.09,-0.39,-0.44,-17.35,-21.74,-9.624207.00,-4.10,-6.37,-7.59,0.09,-0.39,-0.44,-17.35,-21.74,-9.624218.00,-6.14,-4.93,-5.98,0.39,-0.91,0.39,-17.35,-21.74,-9.624232.00,-11.87,-2.30,-0.28,0.42,-0.92,0.58,-17.35,-21.74,-9.624243.00,-11.87,-2.30,-0.28,0.42,-0.92,0.58,-17.35,-21.74,-9.624254.00,-9.78,-2.43,0.41,-0.09,-0.35,0.21,-17.35,-21.74,-9.624266.00,-9.78,-2.43,0.41,-0.09,-0.35,0.21,-17.35,-21.74,-9.624279.00,-9.18,-2.29,-5.20,-0.36,0.04,0.14,-17.35,-21.74,-9.624290.00,-9.18,-2.29,-5.20,-0.36,0.04,0.14,-17.35,-21.74,-9.624301.00,-9.45,-2.67,-4.39,-0.03,-0.24,0.02,-18.18,-20.04,-7.744311.00,-10.36,-1.47,-3.58,0.29,-0.42,-0.09,-18.18,-20.04,-7.744325.00,-10.36,-1.47,-3.58,0.29,-0.42,-0.09,-18.18,-20.04,-7.744337.00,-12.02,-2.45,-0.71,0.25,-0.12,-0.59,-18.18,-20.04,-7.744349.00,-12.02,-2.45,-0.71,0.25,-0.12,-0.59,-18.18,-20.04,-7.744359.00,-6.36,-3.62,-3.04,-0.21,0.39,-0.89,-18.18,-20.04,-7.744374.00,-8.60,-2.19,-3.30,-0.29,0.11,-0.59,-18.18,-20.04,-7.744386.00,-8.60,-2.19,-3.30,-0.29,0.11,-0.59,-18.18,-20.04,-7.744398.00,-7.54,-3.34,-3.00,-0.17,-0.03,-0.55,-18.18,-20.04,-7.744409.00,-7.54,-3.34,-3.00,-0.17,-0.03,-0.55,-18.18,-20.04,-7.744422.00,-6.59,-3.97,-3.89,-0.03,0.02,-0.49,-17.35,-23.11,-8.064434.00,-6.13,-5.73,-6.88,0.23,0.03,-0.46,-17.35,-23.11,-8.064445.00,-6.13,-5.73,-6.88,0.23,0.03,-0.46,-17.35,-23.11,-8.064457.00,-7.09,-5.70,-5.74,0.46,-0.36,-0.30,-17.35,-23.11,-8.064471.00,-8.07,-5.61,-2.74,0.51,-0.43,-0.17,-17.35,-23.11,-8.064483.00,-8.07,-5.61,-2.74,0.51,-0.43,-0.17,-17.35,-23.11,-8.064494.00,-8.57,-5.01,-2.42,0.40,-0.15,-0.06,-17.35,-23.11,-8.064506.00,-8.57,-5.01,-2.42,0.40,-0.15,-0.06,-17.35,-23.11,-8.064519.00,-9.02,-4.44,-1.94,0.39,-0.05,-0.05,-17.35,-23.11,-8.064530.00,-9.02,-4.44,-1.94,0.39,-0.05,-0.05,-17.35,-23.11,-8.064542.00,-9.08,-4.06,-2.38,0.38,0.06,-0.10,-17.56,-21.57,-7.284554.00,-8.73,-4.13,-2.58,0.36,0.17,-0.12,-17.56,-21.57,-7.284567.00,-8.73,-4.13,-2.58,0.36,0.17,-0.12,-17.56,-21.57,-7.284578.00,-8.17,-4.64,-3.12,0.19,0.22,-0.10,-17.56,-21.57,-7.284590.00,-8.17,-4.64,-3.12,0.19,0.22,-0.10,-17.56,-21.57,-7.284601.00,-7.63,-5.03,-4.16,0.01,0.25,-0.02,-17.56,-21.57,-7.284615.00,-7.98,-4.67,-4.15,-0.07,0.15,0.10,-17.56,-21.57,-7.284627.00,-7.98,-4.67,-4.15,-0.07,0.15,0.10,-17.56,-21.57,-7.284639.00,-8.16,-4.29,-3.92,-0.14,0.00,0.14,-17.56,-21.57,-7.284650.00,-8.16,-4.29,-3.92,-0.14,0.00,0.14,-17.56,-21.57,-7.284664.00,-8.38,-4.15,-3.46,-0.16,-0.14,0.13,-17.56,-21.57,-7.284676.00,-8.54,-3.89,-3.32,-0.14,-0.24,0.11,-16.11,-24.13,-7.124686.00,-8.54,-3.89,-3.32,-0.14,-0.24,0.11,-16.11,-24.13,-7.124698.00,-8.45,-4.15,-3.21,-0.09,-0.25,0.07,-16.11,-24.13,-7.124711.00,-8.15,-4.43,-3.24,-0.06,-0.25,0.09,-16.11,-24.13,-7.124723.00,-8.15,-4.43,-3.24,-0.06,-0.25,0.09,-16.11,-24.13,-7.124734.00,-9.03,-3.86,-3.19,-0.08,-0.33,0.14,-16.11,-24.13,-7.124745.00,-9.03,-3.86,-3.19,-0.08,-0.33,0.14,-16.11,-24.13,-7.124759.00,-8.70,-5.05,-1.95,-0.20,-0.25,0.03,-16.11,-24.13,-7.124771.00,-8.44,-3.59,-3.94,-0.52,-0.09,0.08,-16.11,-24.13,-7.124781.00,-8.44,-3.59,-3.94,-0.52,-0.09,0.08,-16.11,-24.13,-7.124793.00,-8.47,-3.64,-4.02,-0.33,-0.12,0.05,-15.90,-23.28,-6.964806.00,-8.47,-3.64,-4.02,-0.33,-0.12,0.05,-15.90,-23.28,-6.964817.00,-8.50,-4.35,-2.79,-0.09,-0.15,0.01,-15.90,-23.28,-6.964829.00,-8.50,-4.35,-2.79,-0.09,-0.15,0.01,-15.90,-23.28,-6.964841.00,-8.50,-4.12,-3.00,-0.14,-0.09,0.03,-15.90,-23.28,-6.964854.00,-8.51,-3.93,-3.39,-0.17,-0.04,0.04,-15.90,-23.28,-6.964866.00,-8.51,-3.93,-3.39,-0.17,-0.04,0.04,-15.90,-23.28,-6.964877.00,-8.48,-3.99,-3.37,-0.14,-0.05,0.03,-15.90,-23.28,-6.964889.00,-8.48,-3.99,-3.37,-0.14,-0.05,0.03,-15.90,-23.28,-6.964903.00,-8.53,-3.86,-3.22,-0.12,-0.06,0.02,-15.90,-23.28,-6.964915.00,-8.51,-3.78,-3.63,-0.11,-0.07,-0.00,-18.38,-21.91,-7.284926.00,-8.51,-3.78,-3.63,-0.11,-0.07,-0.00,-18.38,-21.91,-7.284938.00,-8.53,-3.47,-3.52,-0.02,-0.11,-0.04,-18.38,-21.91,-7.284951.00,-8.48,-4.08,-3.21,0.17,-0.11,-0.08,-18.38,-21.91,-7.284962.00,-8.48,-4.08,-3.21,0.17,-0.11,-0.08,-18.38,-21.91,-7.284974.00,-8.65,-3.49,-3.73,0.10,0.11,0.13,-18.38,-21.91,-7.284986.00,-8.65,-3.49,-3.73,0.10,0.11,0.13,-18.38,-21.91,-7.284999.00,-8.89,-4.29,-2.37,-0.03,0.23,0.29,-18.38,-21.91,-7.285011.00,-8.90,-1.84,-4.04,-0.35,0.32,0.42,-18.38,-21.91,-7.285023.00,-8.90,-1.84,-4.04,-0.35,0.32,0.42,-18.38,-21.91,-7.285035.00,-8.63,-4.57,-2.61,-0.32,0.14,0.18,-16.73,-20.21,-7.905049.00,-8.63,-4.57,-2.61,-0.32,0.14,0.18,-16.73,-20.21,-7.905060.00,-8.53,-4.08,-3.31,-0.58,0.09,0.22,-16.73,-20.21,-7.905071.00,-8.57,-2.92,-4.22,-0.66,0.02,0.20,-16.73,-20.21,-7.905082.00,-8.57,-2.92,-4.22,-0.66,0.02,0.20,-16.73,-20.21,-7.905096.00,-8.33,-2.20,-3.92,-0.45,-0.17,-0.02,-16.73,-20.21,-7.905107.00,-8.33,-2.20,-3.92,-0.45,-0.17,-0.02,-16.73,-20.21,-7.905118.00,-8.20,-4.03,-3.59,-0.18,-0.36,-0.34,-16.73,-20.21,-7.905130.00,-8.20,-4.03,-3.59,-0.18,-0.36,-0.34,-16.73,-20.21,-7.905143.00,-7.95,-4.73,-3.95,-0.03,-0.35,-0.38,-16.73,-20.21,-7.905154.00,-8.41,-4.07,-3.73,0.08,-0.25,-0.23,-16.73,-20.21,-7.905165.00,-8.41,-4.07,-3.73,0.08,-0.25,-0.23,-16.73,-20.21,-7.905176.00,-8.66,-3.64,-3.33,0.09,-0.17,-0.11,-18.18,-20.72,-8.065189.00,-8.66,-3.64,-3.33,0.09,-0.17,-0.11,-18.18,-20.72,-8.065201.00,-8.68,-4.36,-2.04,0.09,-0.09,-0.06,-18.18,-20.72,-8.065212.00,-8.96,-4.13,-3.00,-0.13,0.06,0.08,-18.18,-20.72,-8.065224.00,-8.96,-4.13,-3.00,-0.13,0.06,0.08,-18.18,-20.72,-8.065237.00,-8.46,-4.58,-1.43,-0.30,0.09,0.27,-18.18,-20.72,-8.065248.00,-8.46,-4.58,-1.43,-0.30,0.09,0.27,-18.18,-20.72,-8.065259.00,-8.80,-3.96,-2.53,-0.50,0.16,0.39,-18.18,-20.72,-8.065271.00,-8.82,-3.14,-4.07,-0.59,0.07,0.38,-18.18,-20.72,-8.065284.00,-8.82,-3.14,-4.07,-0.59,0.07,0.38,-18.18,-20.72,-8.065295.00,-7.94,-2.49,-5.38,-0.43,-0.10,0.18,-19.00,-18.34,-9.315307.00,-7.94,-2.49,-5.38,-0.43,-0.10,0.18,-19.00,-18.34,-9.315319.00,-8.03,-3.16,-5.22,-0.04,-0.20,-0.05,-19.00,-18.34,-9.315333.00,-8.30,-2.98,-3.78,0.22,-0.25,-0.09,-19.00,-18.34,-9.315344.00,-8.30,-2.98,-3.78,0.22,-0.25,-0.09,-19.00,-18.34,-9.315356.00,-8.74,-3.58,-2.90,0.39,-0.19,-0.12,-19.00,-18.34,-9.315367.00,-8.74,-3.58,-2.90,0.39,-0.19,-0.12,-19.00,-18.34,-9.315371.00,-8.40,-4.82,-2.32,0.28,-0.05,-0.05,-19.00,-18.34,-9.315448.00,-9.40,-2.73,-4.13,-0.52,0.15,0.23,-18.38,-20.55,-7.905528.00,-5.78,-4.50,-6.38,0.38,-0.52,-0.52,-18.38,-20.55,-7.905605.00,-9.41,-3.87,-3.39,0.11,0.05,0.11,-19.00,-21.06,-7.745685.00,-6.89,-4.47,-3.77,0.03,-0.05,0.09,-19.62,-21.91,-6.655773.00,-8.50,-4.42,-3.38,-0.20,-0.07,0.05,-19.62,-21.91,-6.655785.00,-8.50,-4.42,-3.38,-0.20,-0.07,0.05,-19.62,-21.91,-6.655797.00,-8.57,-3.13,-3.89,-0.12,-0.13,0.02,-19.83,-22.08,-7.125809.00,-8.57,-3.13,-3.89,-0.12,-0.13,0.02,-19.83,-22.08,-7.125823.00,-8.61,-3.20,-2.98,0.13,-0.18,-0.08,-19.83,-22.08,-7.125835.00,-8.66,-3.47,-2.56,0.34,-0.09,-0.21,-19.83,-22.08,-7.125847.00,-8.66,-3.47,-2.56,0.34,-0.09,-0.21,-19.83,-22.08,-7.125858.00,-8.94,-4.08,-2.76,0.32,0.05,-0.24,-19.83,-22.08,-7.125871.00,-9.04,-4.25,-1.91,0.09,0.13,-0.09,-19.83,-22.08,-7.125883.00,-9.04,-4.25,-1.91,0.09,0.13,-0.09,-19.83,-22.08,-7.125893.00,-8.98,-4.46,-2.85,-0.30,0.32,0.22,-19.83,-22.08,-7.125904.00,-8.98,-4.46,-2.85,-0.30,0.32,0.22,-19.83,-22.08,-7.125918.00,-8.95,-4.01,-2.38,-0.47,0.17,0.26,-17.76,-20.38,-6.495930.00,-8.95,-4.01,-2.38,-0.47,0.17,0.26,-17.76,-20.38,-6.495942.00,-8.86,-4.44,-2.11,-0.55,0.10,0.28,-17.76,-20.38,-6.495954.00,-9.02,-2.36,-4.33,-0.72,0.07,0.35,-17.76,-20.38,-6.495968.00,-9.02,-2.36,-4.33,-0.72,0.07,0.35,-17.76,-20.38,-6.495980.00,-8.70,-2.82,-3.34,-0.45,-0.21,0.07,-17.76,-20.38,-6.495991.00,-8.61,-3.95,-2.94,-0.28,-0.32,-0.08,-17.76,-20.38,-6.496003.00,-8.61,-3.95,-2.94,-0.28,-0.32,-0.08,-17.76,-20.38,-6.496016.00,-8.53,-3.49,-3.29,-0.18,-0.15,0.02,-17.76,-20.38,-6.496026.00,-8.53,-3.49,-3.29,-0.18,-0.15,0.02,-17.76,-20.38,-6.496038.00,-8.40,-4.24,-2.91,-0.05,-0.01,0.09,-21.48,-20.04,-7.746049.00,-8.40,-4.24,-2.91,-0.05,-0.01,0.09,-21.48,-20.04,-7.746063.00,-8.78,-3.24,-2.97,-0.07,0.14,0.21,-21.48,-20.04,-7.746076.00,-8.96,-3.03,-2.90,-0.11,0.03,0.11,-21.48,-20.04,-7.746087.00,-8.96,-3.03,-2.90,-0.11,0.03,0.11,-21.48,-20.04,-7.746098.00,-9.17,-3.57,-2.75,-0.19,-0.09,0.01,-21.48,-20.04,-7.746111.00,-9.08,-2.72,-2.90,-0.41,-0.25,-0.01,-21.48,-20.04,-7.746123.00,-9.08,-2.72,-2.90,-0.41,-0.25,-0.01,-21.48,-20.04,-7.746135.00,-8.80,-3.91,-2.15,-0.49,-0.42,-0.11,-21.48,-20.04,-7.746146.00,-8.80,-3.91,-2.15,-0.49,-0.42,-0.11,-21.48,-20.04,-7.746160.00,-8.20,-3.08,-4.69,-0.44,-0.18,0.02,-21.48,-20.04,-7.746172.00,-8.63,-4.01,-2.97,-0.04,-0.07,0.05,-19.42,-19.02,-7.746183.00,-8.63,-4.01,-2.97,-0.04,-0.07,0.05,-19.42,-19.02,-7.746195.00,-9.13,-3.11,-2.31,0.15,0.15,0.16,-19.42,-19.02,-7.746208.00,-9.13,-3.11,-2.31,0.15,0.15,0.16,-19.42,-19.02,-7.746218.00,-9.79,-2.70,-3.24,0.26,0.32,0.13,-19.42,-19.02,-7.746230.00,-9.79,-2.70,-3.24,0.26,0.32,0.13,-19.42,-19.02,-7.746242.00,-10.70,-1.95,-2.30,0.16,0.23,-0.20,-19.42,-19.02,-7.746256.00,-8.87,-3.37,-1.46,-0.14,0.07,-0.59,-19.42,-19.02,-7.746267.00,-8.87,-3.37,-1.46,-0.14,0.07,-0.59,-19.42,-19.02,-7.746279.00,-8.57,-3.48,-3.71,-0.40,-0.05,-0.59,-19.42,-19.02,-7.746289.00,-8.57,-3.48,-3.71,-0.40,-0.05,-0.59,-19.42,-19.02,-7.746303.00,-7.98,-3.29,-5.04,-0.34,-0.25,-0.67,-19.00,-19.36,-7.436315.00,-6.87,-3.92,-4.57,-0.12,-0.50,-0.95,-19.00,-19.36,-7.436327.00,-6.87,-3.92,-4.57,-0.12,-0.50,-0.95,-19.00,-19.36,-7.436337.00,-5.15,-6.15,-3.42,0.17,-0.76,-0.89,-19.00,-19.36,-7.436351.00,-5.15,-6.15,-3.42,0.17,-0.76,-0.89,-19.00,-19.36,-7.436363.00,-6.30,-6.20,-2.60,0.14,-0.85,-0.07,-19.00,-19.36,-7.436374.00,-9.95,-4.10,-3.38,-0.08,-0.73,0.65,-19.00,-19.36,-7.436385.00,-9.95,-4.10,-3.38,-0.08,-0.73,0.65,-19.00,-19.36,-7.436398.00,-10.08,-3.17,-2.76,-0.24,-0.37,0.46,-19.00,-19.36,-7.436409.00,-10.08,-3.17,-2.76,-0.24,-0.37,0.46,-19.00,-19.36,-7.436421.00,-9.32,-4.15,-1.41,-0.26,0.06,0.33,-20.86,-20.89,-6.036433.00,-8.99,-4.11,-2.76,-0.36,0.49,0.66,-20.86,-20.89,-6.036446.00,-8.99,-4.11,-2.76,-0.36,0.49,0.66,-20.86,-20.89,-6.036457.00,-8.82,-3.08,-4.11,-0.17,0.45,0.72,-20.86,-20.89,-6.036469.00,-8.82,-3.08,-4.11,-0.17,0.45,0.72,-20.86,-20.89,-6.036481.00,-8.86,-3.58,-3.34,0.17,0.29,0.57,-20.86,-20.89,-6.036494.00,-9.04,-2.21,-3.12,0.34,0.19,0.45,-20.86,-20.89,-6.036506.00,-9.04,-2.21,-3.12,0.34,0.19,0.45,-20.86,-20.89,-6.036518.00,-8.89,-3.55,-1.28,0.44,-0.13,0.07,-20.86,-20.89,-6.036529.00,-8.89,-3.55,-1.28,0.44,-0.13,0.07,-20.86,-20.89,-6.036543.00,-8.72,-1.98,-3.90,0.25,-0.17,-0.18,-22.51,-20.21,-7.286555.00,-8.95,-4.42,-1.78,0.15,-0.37,-0.44,-22.51,-20.21,-7.286566.00,-8.95,-4.42,-1.78,0.15,-0.37,-0.44,-22.51,-20.21,-7.286577.00,-9.11,-3.74,-1.93,-0.18,-0.32,-0.24,-22.51,-20.21,-7.286591.00,-9.11,-3.74,-1.93,-0.18,-0.32,-0.24,-22.51,-20.21,-7.286603.00,-9.12,-4.88,0.16,-0.54,-0.14,-0.01,-22.51,-20.21,-7.286614.00,-9.52,-2.79,-2.58,-0.97,0.19,0.21,-22.51,-20.21,-7.286625.00,-9.52,-2.79,-2.58,-0.97,0.19,0.21,-22.51,-20.21,-7.286639.00,-9.40,-1.94,-3.63,-0.59,0.24,0.17,-22.51,-20.21,-7.286650.00,-9.40,-1.94,-3.63,-0.59,0.24,0.17,-22.51,-20.21,-7.286662.00,-15.16,-0.02,0.28,0.16,0.45,-0.05,-22.51,-20.21,-7.286674.00,-10.51,-2.36,-1.14,0.20,1.56,-0.98,-20.86,-17.83,-8.536688.00,-10.51,-2.36,-1.14,0.20,1.56,-0.98,-20.86,-17.83,-8.536700.00,-5.40,-2.55,-6.48,0.11,1.42,-1.09,-20.86,-17.83,-8.536712.00,-7.49,-3.25,-2.24,0.71,0.24,-0.67,-20.86,-17.83,-8.536724.00,-7.49,-3.25,-2.24,0.71,0.24,-0.67,-20.86,-17.83,-8.536737.00,-7.38,-3.74,-3.09,0.67,-0.10,-0.34,-20.86,-17.83,-8.536749.00,-7.38,-3.74,-3.09,0.67,-0.10,-0.34,-20.86,-17.83,-8.536761.00,-6.10,-4.42,-5.55,0.68,-0.08,-0.21,-20.86,-17.83,-8.536772.00,-5.54,-4.06,-7.81,1.08,-0.12,-0.23,-20.86,-17.83,-8.536785.00,-5.54,-4.06,-7.81,1.08,-0.12,-0.23,-20.86,-17.83,-8.536797.00,-6.19,-3.97,-7.35,1.70,-0.34,-0.59,-19.00,-24.13,-5.876809.00,-6.19,-3.97,-7.35,1.70,-0.34,-0.59,-19.00,-24.13,-5.876821.00,-6.22,-8.46,-4.32,2.18,-0.43,-0.99,-19.00,-24.13,-5.876835.00,-8.77,-8.34,1.08,1.64,-0.44,-0.45,-19.00,-24.13,-5.876847.00,-8.77,-8.34,1.08,1.64,-0.44,-0.45,-19.00,-24.13,-5.876858.00,-10.08,-5.64,1.84,0.42,-0.16,0.09,-19.00,-24.13,-5.876869.00,-10.08,-5.64,1.84,0.42,-0.16,0.09,-19.00,-24.13,-5.876883.00,-10.18,-3.65,-1.00,-0.56,0.10,0.22,-19.00,-24.13,-5.876894.00,-9.44,-3.60,-3.42,-0.83,0.18,0.08,-19.00,-24.13,-5.876906.00,-9.44,-3.60,-3.42,-0.83,0.18,0.08,-19.00,-24.13,-5.876918.00,-8.04,-4.11,-4.09,-0.65,0.18,-0.05,-17.35,-25.15,-7.436931.00,-8.04,-4.11,-4.09,-0.65,0.18,-0.05,-17.35,-25.15,-7.436942.00,-7.58,-4.62,-4.19,-0.38,0.07,-0.04,-17.35,-25.15,-7.436953.00,-8.00,-4.43,-3.74,-0.12,-0.11,-0.02,-17.35,-25.15,-7.436963.00,-8.00,-4.43,-3.74,-0.12,-0.11,-0.02,-17.35,-25.15,-7.436977.00,-8.24,-4.67,-2.65,0.10,-0.22,-0.09,-17.35,-25.15,-7.436988.00,-8.24,-4.67,-2.65,0.10,-0.22,-0.09,-17.35,-25.15,-7.436999.00,-8.24,-4.87,-2.32,0.07,-0.30,-0.14,-17.35,-25.15,-7.437011.00,-8.24,-4.87,-2.32,0.07,-0.30,-0.14,-17.35,-25.15,-7.437025.00,-7.30,-5.34,-2.94,-0.15,-0.41,-0.12,-17.35,-25.15,-7.437035.00,-7.77,-5.31,-2.87,-0.29,-0.58,0.08,-18.80,-23.96,-5.717047.00,-7.77,-5.31,-2.87,-0.29,-0.58,0.08,-18.80,-23.96,-5.717059.00,-8.99,-6.08,-2.12,-0.46,-0.46,0.08,-18.80,-23.96,-5.717072.00,-8.57,-2.85,-3.97,-0.68,-0.09,0.14,-18.80,-23.96,-5.717084.00,-8.57,-2.85,-3.97,-0.68,-0.09,0.14,-18.80,-23.96,-5.717096.00,-8.68,-4.63,-3.02,-0.23,-0.01,0.09,-18.80,-23.96,-5.717108.00,-8.68,-4.63,-3.02,-0.23,-0.01,0.09,-18.80,-23.96,-5.717121.00,-8.18,-5.79,-2.79,-0.21,0.21,0.31,-18.80,-23.96,-5.717132.00,-8.64,-2.64,-4.48,-0.31,0.35,0.53,-18.80,-23.96,-5.717144.00,-8.64,-2.64,-4.48,-0.31,0.35,0.53,-18.80,-23.96,-5.717156.00,-8.75,-5.41,-0.56,0.15,0.35,0.43,-18.80,-23.96,-5.717169.00,-8.75,-5.41,-0.56,0.15,0.35,0.43,-18.80,-23.96,-5.717180.00,-8.87,-3.14,-2.45,0.21,0.48,0.48,-20.24,-22.77,-6.497192.00,-8.55,-5.88,-1.47,0.19,0.37,0.29,-20.24,-22.77,-6.497204.00,-8.55,-5.88,-1.47,0.19,0.37,0.29,-20.24,-22.77,-6.497216.00,-8.48,-4.05,-3.70,-0.32,0.25,0.27,-20.24,-22.77,-6.497228.00,-8.48,-4.05,-3.70,-0.32,0.25,0.27,-20.24,-22.77,-6.497240.00,-10.42,-2.03,-2.90,-0.38,-0.06,-0.07,-20.24,-22.77,-6.497252.00,-7.95,-3.29,-4.02,-0.30,0.03,-0.66,-20.24,-22.77,-6.497265.00,-7.95,-3.29,-4.02,-0.30,0.03,-0.66,-20.24,-22.77,-6.497277.00,-5.89,-4.94,-5.32,0.01,-0.10,-0.79,-20.24,-22.77,-6.497289.00,-5.89,-4.94,-5.32,0.01,-0.10,-0.79,-20.24,-22.77,-6.497301.00,-5.56,-6.80,-4.50,0.29,-0.41,-0.45,-17.97,-22.59,-7.907314.00,-8.25,-5.17,-2.93,0.33,-0.60,0.21,-17.97,-22.59,-7.907326.00,-8.25,-5.17,-2.93,0.33,-0.60,0.21,-17.97,-22.59,-7.907337.00,-10.19,-5.30,1.33,0.28,-0.48,0.28,-17.97,-22.59,-7.907349.00,-10.19,-5.30,1.33,0.28,-0.48,0.28,-17.97,-22.59,-7.907362.00,-9.27,-3.85,-1.97,-0.40,0.05,0.24,-17.97,-22.59,-7.907373.00,-8.84,-3.86,-4.28,-0.47,0.10,0.20,-17.97,-22.59,-7.907383.00,-8.84,-3.86,-4.28,-0.47,0.10,0.20,-17.97,-22.59,-7.907395.00,-8.60,-3.79,-4.25,-0.10,-0.02,0.22,-17.97,-22.59,-7.907409.00,-8.60,-3.79,-4.25,-0.10,-0.02,0.22,-17.97,-22.59,-7.907421.00,-10.31,-3.04,-2.81,0.20,0.01,0.19,-20.65,-20.72,-7.127433.00,-8.14,-4.30,-2.10,0.12,0.22,-0.09,-20.65,-20.72,-7.127445.00,-8.14,-4.30,-2.10,0.12,0.22,-0.09,-20.65,-20.72,-7.127458.00,-6.39,-4.77,-4.02,-0.03,0.17,-0.09,-20.65,-20.72,-7.127469.00,-6.39,-4.77,-4.02,-0.03,0.17,-0.09,-20.65,-20.72,-7.127480.00,-6.38,-5.60,-4.27,0.13,-0.09,0.06,-20.65,-20.72,-7.127492.00,-8.08,-4.94,-3.75,0.28,-0.29,0.33,-20.65,-20.72,-7.127506.00,-8.08,-4.94,-3.75,0.28,-0.29,0.33,-20.65,-20.72,-7.127518.00,-9.38,-4.73,-0.78,0.22,-0.23,0.33,-20.65,-20.72,-7.127528.00,-9.38,-4.73,-0.78,0.22,-0.23,0.33,-20.65,-20.72,-7.127540.00,-8.91,-3.75,-1.99,-0.14,0.20,0.36,-19.00,-22.08,-6.187554.00,-8.92,-3.01,-2.92,-0.20,0.32,0.37,-19.00,-22.08,-6.187566.00,-8.92,-3.01,-2.92,-0.20,0.32,0.37,-19.00,-22.08,-6.187578.00,-8.65,-4.73,-2.65,-0.09,0.22,0.22,-19.00,-22.08,-6.187589.00,-8.65,-4.73,-2.65,-0.09,0.22,0.22,-19.00,-22.08,-6.187602.00,-8.62,-4.08,-3.68,-0.25,0.18,0.25,-19.00,-22.08,-6.187614.00,-8.59,-3.55,-3.79,-0.31,0.07,0.23,-19.00,-22.08,-6.187624.00,-8.59,-3.55,-3.79,-0.31,0.07,0.23,-19.00,-22.08,-6.187636.00,-8.68,-3.83,-3.10,-0.31,-0.04,0.13,-19.00,-22.08,-6.187648.00,-8.68,-3.83,-3.10,-0.31,-0.04,0.13,-19.00,-22.08,-6.187660.00,-8.61,-3.08,-3.40,-0.31,-0.15,-0.02,-19.00,-22.08,-6.187672.00,-8.13,-3.41,-4.35,-0.16,-0.23,-0.23,-19.00,-22.08,-6.187684.00,-8.13,-3.41,-4.35,-0.16,-0.23,-0.23,-19.00,-22.08,-6.187697.00,-8.07,-4.19,-4.11,0.19,-0.41,-0.44,-19.00,-22.08,-6.187709.00,-8.07,-4.19,-4.11,0.19,-0.41,-0.44,-19.00,-22.08,-6.187721.00,-8.39,-4.16,-3.39,0.42,-0.41,-0.47,-19.00,-22.08,-6.187733.00,-8.67,-4.55,-1.88,0.46,-0.27,-0.31,-19.00,-22.08,-6.187747.00,-8.67,-4.55,-1.88,0.46,-0.27,-0.31,-19.00,-22.08,-6.187758.00,-9.04,-4.63,-2.85,0.20,-0.02,-0.07,-19.00,-22.08,-6.187770.00,-9.04,-4.63,-2.85,0.20,-0.02,-0.07,-19.00,-22.08,-6.187782.00,-8.55,-6.66,-0.61,-0.04,0.02,0.06,-19.00,-22.08,-6.187795.00,-8.66,-4.13,-2.91,-0.62,0.27,0.38,-19.21,-22.59,-7.597806.00,-8.66,-4.13,-2.91,-0.62,0.27,0.38,-19.21,-22.59,-7.597818.00,-9.13,-3.54,-3.01,-0.69,0.15,0.40,-19.21,-22.59,-7.597830.00,-9.13,-3.54,-3.01,-0.69,0.15,0.40,-19.21,-22.59,-7.597842.00,-8.89,-3.78,-2.16,-0.67,0.03,0.40,-19.21,-22.59,-7.597855.00,-8.65,-3.03,-4.50,-0.74,0.02,0.34,-19.21,-22.59,-7.597867.00,-8.65,-3.03,-4.50,-0.74,0.02,0.34,-19.21,-22.59,-7.597879.00,-8.48,-1.75,-4.08,-0.41,-0.19,0.07,-19.21,-22.59,-7.597891.00,-8.48,-1.75,-4.08,-0.41,-0.19,0.07,-19.21,-22.59,-7.597905.00,-8.13,-3.54,-4.48,0.04,-0.27,-0.19,-19.21,-22.59,-7.597917.00,-8.44,-3.77,-3.76,0.32,-0.27,-0.20,-19.42,-21.74,-7.437929.00,-8.44,-3.77,-3.76,0.32,-0.27,-0.20,-19.42,-21.74,-7.437940.00,-8.67,-4.10,-2.26,0.39,-0.23,-0.17,-19.42,-21.74,-7.437944.00,-8.67,-4.10,-2.26,0.39,-0.23,-0.17,-19.42,-21.74,-7.438022.00,-8.92,-3.70,-3.26,-0.61,0.24,0.36,-19.42,-21.74,-7.438101.00,-8.37,-2.22,-5.18,0.08,-0.26,-0.19,-19.21,-19.19,-7.598179.00,-9.15,-2.32,-3.85,-0.29,0.29,0.29,-19.62,-20.55,-6.968270.00,-8.67,-2.33,-5.17,-0.48,-0.22,0.13,-19.62,-20.55,-6.968282.00,-8.52,-2.64,-5.03,-0.13,-0.33,0.05,-19.62,-20.55,-6.968294.00,-8.32,-3.67,-4.20,0.24,-0.38,0.02,-21.07,-19.02,-9.318306.00,-8.32,-3.67,-4.20,0.24,-0.38,0.02,-21.07,-19.02,-9.318319.00,-8.73,-2.95,-2.77,0.36,-0.39,0.04,-21.07,-19.02,-9.318332.00,-8.73,-2.95,-2.77,0.36,-0.39,0.04,-21.07,-19.02,-9.318344.00,-8.55,-3.59,-2.17,0.44,-0.26,-0.06,-21.07,-19.02,-9.318356.00,-8.66,-4.05,-3.43,0.58,0.01,-0.09,-21.07,-19.02,-9.318369.00,-8.66,-4.05,-3.43,0.58,0.01,-0.09,-21.07,-19.02,-9.318381.00,-8.68,-1.86,-4.12,0.75,0.06,-0.15,-21.07,-19.02,-9.318393.00,-9.88,-3.08,-0.13,0.87,-0.00,-0.34,-21.07,-19.02,-9.318405.00,-9.88,-3.08,-0.13,0.87,-0.00,-0.34,-21.07,-19.02,-9.318418.00,-10.65,-2.19,-1.63,0.30,0.20,-0.36,-19.83,-21.40,-7.128429.00,-10.65,-2.19,-1.63,0.30,0.20,-0.36,-19.83,-21.40,-7.128441.00,-11.71,-3.70,-1.20,-0.04,0.11,-0.56,-19.83,-21.40,-7.128454.00,-9.03,-2.26,-1.89,-0.50,-0.07,-0.37,-19.83,-21.40,-7.128465.00,-9.03,-2.26,-1.89,-0.50,-0.07,-0.37,-19.83,-21.40,-7.128477.00,-7.90,-3.11,-1.39,-0.41,-0.25,-0.22,-19.83,-21.40,-7.128489.00,-7.90,-3.11,-1.39,-0.41,-0.25,-0.22,-19.83,-21.40,-7.128502.00,-7.76,-4.19,-2.04,-0.53,-0.14,-0.05,-19.83,-21.40,-7.128514.00,-6.61,-3.51,-5.93,-0.65,0.29,0.04,-19.83,-21.40,-7.128525.00,-6.61,-3.51,-5.93,-0.65,0.29,0.04,-19.83,-21.40,-7.128537.00,-7.00,-4.03,-4.90,-0.32,0.37,-0.13,-21.07,-20.04,-7.748551.00,-7.00,-4.03,-4.90,-0.32,0.37,-0.13,-21.07,-20.04,-7.748562.00,-7.93,-5.65,-7.49,0.00,0.56,-0.31,-21.07,-20.04,-7.748572.00,-7.22,-5.34,-5.97,0.39,0.32,-0.33,-21.07,-20.04,-7.748584.00,-7.22,-5.34,-5.97,0.39,0.32,-0.33,-21.07,-20.04,-7.748598.00,-8.08,-4.75,-1.49,0.75,-0.07,-0.27,-21.07,-20.04,-7.748610.00,-8.08,-4.75,-1.49,0.75,-0.07,-0.27,-21.07,-20.04,-7.748621.00,-9.45,-4.73,-0.39,0.45,-0.16,-0.16,-21.07,-20.04,-7.748633.00,-9.14,-3.75,-2.70,-0.09,-0.02,-0.03,-21.07,-20.04,-7.748646.00,-9.14,-3.75,-2.70,-0.09,-0.02,-0.03,-21.07,-20.04,-7.748658.00,-8.05,-3.88,-4.42,-0.19,0.04,-0.01,-18.38,-21.23,-6.968670.00,-8.05,-3.88,-4.42,-0.19,0.04,-0.01,-18.38,-21.23,-6.968682.00,-7.45,-3.97,-4.77,-0.05,-0.02,0.10,-18.38,-21.23,-6.968696.00,-9.47,-2.93,-3.82,0.11,-0.19,0.18,-18.38,-21.23,-6.968707.00,-9.47,-2.93,-3.82,0.11,-0.19,0.18,-18.38,-21.23,-6.968718.00,-8.87,-4.66,-2.50,0.13,-0.23,0.02,-18.38,-21.23,-6.968730.00,-8.87,-4.66,-2.50,0.13,-0.23,0.02,-18.38,-21.23,-6.968742.00,-8.75,-4.20,-2.66,-0.05,-0.20,0.07,-18.38,-21.23,-6.968755.00,-8.89,-4.57,-2.10,-0.16,-0.18,0.13,-18.38,-21.23,-6.968767.00,-8.89,-4.57,-2.10,-0.16,-0.18,0.13,-18.38,-21.23,-6.968779.00,-9.23,-3.82,-1.77,-0.50,-0.14,0.23,-18.38,-21.23,-6.968791.00,-9.23,-3.82,-1.77,-0.50,-0.14,0.23,-18.38,-21.23,-6.968805.00,-8.47,-3.06,-3.13,-0.82,-0.25,0.13,-18.18,-20.04,-7.748817.00,-8.66,-2.57,-4.07,-0.72,-0.43,-0.13,-18.18,-20.04,-7.748828.00,-8.66,-2.57,-4.07,-0.72,-0.43,-0.13,-18.18,-20.04,-7.748841.00,-7.70,-2.95,-5.57,-0.19,-0.49,-0.31,-18.18,-20.04,-7.748853.00,-7.92,-3.44,-4.66,0.38,-0.39,-0.36,-18.18,-20.04,-7.748865.00,-7.92,-3.44,-4.66,0.38,-0.39,-0.36,-18.18,-20.04,-7.748876.00,-8.15,-3.76,-2.90,0.67,-0.28,-0.48,-18.18,-20.04,-7.748889.00,-8.15,-3.76,-2.90,0.67,-0.28,-0.48,-18.18,-20.04,-7.748901.00,-8.38,-5.07,-1.29,0.63,-0.08,-0.48,-18.18,-20.04,-7.748911.00,-8.38,-5.07,-1.29,0.63,-0.08,-0.48,-18.18,-20.04,-7.748923.00,-9.12,-5.40,-1.48,0.16,0.26,-0.18,-20.04,-21.91,-7.288936.00,-8.97,-5.39,-1.82,-0.23,0.38,0.14,-20.04,-21.91,-7.288947.00,-8.97,-5.39,-1.82,-0.23,0.38,0.14,-20.04,-21.91,-7.288957.00,-8.87,-4.77,-2.70,-0.49,0.50,0.50,-20.04,-21.91,-7.288969.00,-8.87,-4.77,-2.70,-0.49,0.50,0.50,-20.04,-21.91,-7.288981.00,-8.88,-3.33,-3.36,-0.59,0.44,0.72,-20.04,-21.91,-7.288994.00,-8.49,-4.25,-2.53,-0.53,0.24,0.67,-20.04,-21.91,-7.289005.00,-8.49,-4.25,-2.53,-0.53,0.24,0.67,-20.04,-21.91,-7.289016.00,-8.56,-2.95,-3.93,-0.66,0.11,0.58,-20.04,-21.91,-7.289028.00,-8.56,-2.95,-3.93,-0.66,0.11,0.58,-20.04,-21.91,-7.289041.00,-8.62,-1.63,-3.95,-0.49,-0.07,0.31,-20.04,-18.17,-7.909053.00,-8.59,-2.17,-3.70,-0.23,-0.26,-0.08,-20.04,-18.17,-7.909064.00,-8.59,-2.17,-3.70,-0.23,-0.26,-0.08,-20.04,-18.17,-7.909075.00,-8.10,-3.20,-4.92,0.10,-0.32,-0.37,-20.04,-18.17,-7.909088.00,-8.10,-3.20,-4.92,0.10,-0.32,-0.37,-20.04,-18.17,-7.909099.00,-8.36,-3.93,-3.96,0.38,-0.29,-0.38,-20.04,-18.17,-7.909110.00,-8.36,-3.93,-3.96,0.38,-0.29,-0.38,-20.04,-18.17,-7.909122.00,-8.59,-3.62,-3.25,0.41,-0.20,-0.30,-20.04,-18.17,-7.909135.00,-8.34,-5.17,-2.42,0.38,0.01,-0.19,-20.04,-18.17,-7.909146.00,-8.34,-5.17,-2.42,0.38,0.01,-0.19,-20.04,-18.17,-7.909157.00,-8.90,-3.96,-2.72,0.03,0.20,0.13,-19.42,-20.38,-6.819169.00,-8.90,-3.96,-2.72,0.03,0.20,0.13,-19.42,-20.38,-6.819182.00,-8.99,-4.14,-1.78,-0.13,0.12,0.20,-19.42,-20.38,-6.819192.00,-8.99,-4.14,-1.78,-0.13,0.12,0.20,-19.42,-20.38,-6.819204.00,-9.03,-3.22,-2.82,-0.39,0.13,0.34,-19.42,-20.38,-6.819215.00,-8.95,-4.12,-3.23,-0.46,0.00,0.37,-19.42,-20.38,-6.819228.00,-8.95,-4.12,-3.23,-0.46,0.00,0.37,-19.42,-20.38,-6.819239.00,-8.54,-1.47,-6.22,-0.46,-0.19,0.33,-19.42,-20.38,-6.819250.00,-8.54,-1.47,-6.22,-0.46,-0.19,0.33,-19.42,-20.38,-6.819262.00,-8.02,-3.34,-4.33,-0.01,-0.45,0.03,-19.42,-20.38,-6.819275.00,-8.42,-2.43,-6.08,0.38,-0.36,-0.05,-19.42,-20.38,-6.819286.00,-8.42,-2.43,-6.08,0.38,-0.36,-0.05,-19.42,-20.38,-6.819297.00,-8.26,-4.98,-0.66,0.79,-0.36,-0.07,-19.42,-18.00,-8.069309.00,-8.26,-4.98,-0.66,0.79,-0.36,-0.07,-19.42,-18.00,-8.069322.00,-8.89,-2.69,-3.06,0.54,0.02,0.06,-19.42,-18.00,-8.069334.00,-8.87,-3.97,-2.09,0.51,-0.01,-0.16,-19.42,-18.00,-8.069346.00,-8.87,-3.97,-2.09,0.51,-0.01,-0.16,-19.42,-18.00,-8.069358.00,-9.08,-3.56,-1.89,0.30,0.02,-0.26,-19.42,-18.00,-8.069371.00,-9.08,-3.56,-1.89,0.30,0.02,-0.26,-19.42,-18.00,-8.069382.00,-9.23,-2.37,-4.00,0.11,0.06,-0.33,-19.42,-18.00,-8.069394.00,-9.38,-3.24,-3.10,0.32,-0.14,-0.51,-19.42,-18.00,-8.069406.00,-9.38,-3.24,-3.10,0.32,-0.14,-0.51,-19.42,-18.00,-8.069419.00,-11.29,-4.30,1.75,0.23,-0.19,-0.48,-20.86,-20.89,-7.289431.00,-11.29,-4.30,1.75,0.23,-0.19,-0.48,-20.86,-20.89,-7.289443.00,-9.91,-2.18,-0.46,-0.72,0.13,-0.28,-20.86,-20.89,-7.289454.00,-7.94,-2.04,-3.33,-0.82,0.19,-0.30,-20.86,-20.89,-7.289468.00,-7.94,-2.04,-3.33,-0.82,0.19,-0.30,-20.86,-20.89,-7.289480.00,-7.27,-4.73,-4.26,-0.48,0.22,-0.31,-20.86,-20.89,-7.289491.00,-7.27,-4.73,-4.26,-0.48,0.22,-0.31,-20.86,-20.89,-7.289503.00,-6.57,-5.16,-6.98,-0.21,0.39,-0.26,-20.86,-20.89,-7.289516.00,-6.95,-5.29,-5.43,0.29,0.23,-0.26,-20.86,-20.89,-7.289528.00,-6.95,-5.29,-5.43,0.29,0.23,-0.26,-20.86,-20.89,-7.289539.00,-6.84,-6.44,-5.28,0.58,0.29,-0.30,-19.42,-21.06,-8.689551.00,-6.84,-6.44,-5.28,0.58,0.29,-0.30,-19.42,-21.06,-8.689564.00,-7.13,-5.44,-3.23,0.51,0.09,-0.11,-19.42,-21.06,-8.689576.00,-8.69,-4.49,-2.29,0.33,-0.12,0.11,-19.42,-21.06,-8.689587.00,-8.69,-4.49,-2.29,0.33,-0.12,0.11,-19.42,-21.06,-8.689599.00,-9.57,-3.85,-2.15,0.07,-0.16,0.14,-19.42,-21.06,-8.689612.00,-9.57,-3.85,-2.15,0.07,-0.16,0.14,-19.42,-21.06,-8.689622.00,-8.73,-3.97,-3.41,-0.11,-0.02,0.06,-19.42,-21.06,-8.689634.00,-8.33,-3.97,-3.79,-0.08,-0.01,0.04,-19.42,-21.06,-8.689646.00,-8.33,-3.97,-3.79,-0.08,-0.01,0.04,-19.42,-21.06,-8.689659.00,-8.14,-4.15,-3.71,0.03,-0.06,0.06,-18.38,-21.23,-6.659671.00,-8.14,-4.15,-3.71,0.03,-0.06,0.06,-18.38,-21.23,-6.659683.00,-8.10,-4.10,-3.54,0.14,-0.14,0.09,-18.38,-21.23,-6.659695.00,-8.95,-4.46,-2.81,0.20,-0.20,0.09,-18.38,-21.23,-6.659699.00,-8.95,-4.46,-2.81,0.20,-0.20,0.09,-18.38,-21.23,-6.659777.00,-8.69,-4.05,-2.37,-0.34,-0.32,-0.06,-18.38,-21.23,-6.659857.00,-8.61,-3.95,-4.16,0.08,-0.18,-0.03,-18.59,-21.40,-6.499934.00,-8.58,-4.14,-3.08,-0.14,0.01,0.08,-18.18,-20.72,-8.0610026.00,-8.38,-3.66,-4.26,-0.12,-0.18,-0.10,-18.18,-20.72,-8.0610038.00,-8.80,-4.70,-2.53,0.13,-0.12,-0.02,-19.83,-20.38,-6.4910050.00,-8.80,-4.70,-2.53,0.13,-0.12,-0.02,-19.83,-20.38,-6.4910061.00,-8.36,-4.48,-2.27,0.06,0.10,0.25,-19.83,-20.38,-6.4910075.00,-8.42,-4.17,-3.38,0.06,0.20,0.32,-19.83,-20.38,-6.4910087.00,-8.42,-4.17,-3.38,0.06,0.20,0.32,-19.83,-20.38,-6.4910098.00,-8.58,-3.92,-2.70,0.11,0.01,0.17,-19.83,-20.38,-6.4910110.00,-8.58,-3.92,-2.70,0.11,0.01,0.17,-19.83,-20.38,-6.4910123.00,-8.84,-3.81,-3.12,-0.05,-0.06,0.07,-19.83,-20.38,-6.4910135.00,-9.06,-2.63,-3.03,-0.16,-0.28,-0.06,-19.83,-20.38,-6.4910147.00,-9.06,-2.63,-3.03,-0.16,-0.28,-0.06,-19.83,-20.38,-6.4910158.00,-8.59,-3.96,-2.55,-0.12,-0.43,-0.25,-20.04,-20.21,-7.5910171.00,-8.59,-3.96,-2.55,-0.12,-0.43,-0.25,-20.04,-20.21,-7.5910183.00,-8.32,-3.82,-4.10,-0.12,-0.19,-0.11,-20.04,-20.21,-7.5910194.00,-8.90,-4.07,-2.03,0.14,-0.04,-0.01,-20.04,-20.21,-7.5910206.00,-8.90,-4.07,-2.03,0.14,-0.04,-0.01,-20.04,-20.21,-7.5910219.00,-8.85,-4.94,-1.80,0.24,0.25,0.13,-20.04,-20.21,-7.5910230.00,-8.85,-4.94,-1.80,0.24,0.25,0.13,-20.04,-20.21,-7.5910241.00,-8.99,-2.96,-4.70,0.04,0.36,0.27,-20.04,-20.21,-7.5910253.00,-8.99,-2.96,-4.70,0.04,0.36,0.27,-20.04,-20.21,-7.5910266.00,-9.27,-3.84,-2.42,0.06,0.10,-0.00,-20.04,-20.21,-7.5910277.00,-7.81,-4.28,-2.87,-0.20,-0.01,-0.12,-20.04,-20.21,-7.5910289.00,-7.81,-4.28,-2.87,-0.20,-0.01,-0.12,-20.04,-20.21,-7.5910300.00,-7.11,-4.42,-4.21,-0.25,-0.14,-0.03,-19.42,-21.40,-7.1210313.00,-7.11,-4.42,-4.21,-0.25,-0.14,-0.03,-19.42,-21.40,-7.1210325.00,-7.61,-4.63,-3.67,-0.07,-0.31,0.13,-19.42,-21.40,-7.1210336.00,-9.42,-4.10,-1.72,-0.10,-0.31,0.16,-19.42,-21.40,-7.1210348.00,-9.42,-4.10,-1.72,-0.10,-0.31,0.16,-19.42,-21.40,-7.1210362.00,-8.73,-3.27,-3.95,-0.21,-0.02,0.07,-19.42,-21.40,-7.1210374.00,-8.56,-3.20,-4.30,0.03,-0.06,0.02,-19.42,-21.40,-7.1210385.00,-8.56,-3.20,-4.30,0.03,-0.06,0.02,-19.42,-21.40,-7.1210396.00,-8.64,-3.65,-3.40,0.32,-0.13,-0.05,-19.42,-21.40,-7.1210410.00,-8.64,-3.65,-3.40,0.32,-0.13,-0.05,-19.42,-21.40,-7.1210422.00,-8.81,-4.36,-2.15,0.41,-0.02,-0.02,-19.62,-21.57,-8.5310433.00,-8.81,-4.36,-2.15,0.41,-0.02,-0.02,-19.62,-21.57,-8.5310444.00,-9.10,-4.04,-2.04,0.22,0.17,0.11,-19.62,-21.57,-8.5310458.00,-8.90,-4.79,-1.57,-0.01,0.14,0.09,-19.62,-21.57,-8.5310470.00,-8.90,-4.79,-1.57,-0.01,0.14,0.09,-19.62,-21.57,-8.5310480.00,-8.99,-3.96,-2.85,-0.38,0.16,0.19,-19.62,-21.57,-8.5310492.00,-8.99,-3.96,-2.85,-0.38,0.16,0.19,-19.62,-21.57,-8.5310506.00,-9.02,-3.50,-2.95,-0.57,0.08,0.25,-19.62,-21.57,-8.5310518.00,-8.79,-2.17,-3.85,-0.57,-0.10,0.15,-19.62,-21.57,-8.5310529.00,-8.79,-2.17,-3.85,-0.57,-0.10,0.15,-19.62,-21.57,-8.5310540.00,-8.24,-3.51,-4.99,-0.27,-0.27,-0.10,-20.65,-19.70,-6.4910554.00,-8.34,-4.03,-4.17,0.08,-0.24,-0.13,-20.65,-19.70,-6.4910566.00,-8.34,-4.03,-4.17,0.08,-0.24,-0.13,-20.65,-19.70,-6.4910577.00,-8.81,-3.29,-2.55,0.24,-0.17,-0.06,-20.65,-19.70,-6.4910589.00,-8.81,-3.29,-2.55,0.24,-0.17,-0.06,-20.65,-19.70,-6.4910601.00,-8.74,-4.52,-1.90,0.22,-0.02,-0.06,-20.65,-19.70,-6.4910613.00,-8.74,-4.52,-1.90,0.22,-0.02,-0.06,-20.65,-19.70,-6.4910625.00,-9.17,-3.33,-2.93,-0.03,0.28,0.20,-20.65,-19.70,-6.4910638.00,-9.26,-3.85,-2.23,-0.22,0.24,0.25,-20.65,-19.70,-6.4910648.00,-9.26,-3.85,-2.23,-0.22,0.24,0.25,-20.65,-19.70,-6.4910660.00,-8.84,-2.54,-3.84,-0.30,0.10,0.15,-20.04,-19.53,-7.9010672.00,-8.84,-2.54,-3.84,-0.30,0.10,0.15,-20.04,-19.53,-7.9010676.00,-10.30,-2.91,-2.72,-0.12,-0.21,-0.28,-20.04,-19.53,-7.9010754.00,-8.57,-5.49,-2.67,0.40,-0.87,-0.42,-20.04,-19.53,-7.9010834.00,-8.44,-4.61,-3.22,-0.36,0.20,0.40,-19.83,-19.36,-6.4910912.00,-8.75,-3.89,-2.33,0.16,-0.09,0.28,-19.83,-19.36,-6.4911003.00,-9.48,-3.39,-1.65,-0.19,-0.41,-0.22,-22.10,-19.53,-8.2111015.00,-12.19,-2.55,-2.03,-0.24,-0.09,-0.16,-22.10,-19.53,-8.2111026.00,-12.19,-2.55,-2.03,-0.24,-0.09,-0.16,-22.10,-19.53,-8.2111037.00,-6.53,-4.25,-3.45,-0.32,0.23,-0.46,-21.07,-18.68,-7.1211051.00,-6.53,-4.25,-3.45,-0.32,0.23,-0.46,-21.07,-18.68,-7.1211061.00,-5.30,-5.71,-4.31,-0.12,0.10,-0.20,-21.07,-18.68,-7.1211073.00,-5.30,-5.71,-4.31,-0.12,0.10,-0.20,-21.07,-18.68,-7.1211085.00,-5.42,-5.81,-4.54,0.17,-0.05,0.32,-21.07,-18.68,-7.1211098.00,-13.25,-2.89,-1.30,0.38,-0.33,0.77,-21.07,-18.68,-7.1211110.00,-13.25,-2.89,-1.30,0.38,-0.33,0.77,-21.07,-18.68,-7.1211122.00,-10.02,-3.21,1.00,0.12,-0.07,0.38,-21.07,-18.68,-7.1211134.00,-10.02,-3.21,1.00,0.12,-0.07,0.38,-21.07,-18.68,-7.1211147.00,-9.19,-3.66,-2.76,-0.40,0.36,0.28,-21.07,-18.68,-7.1211159.00,-8.91,-2.88,-4.75,-0.39,0.33,0.32,-21.89,-19.02,-8.6811170.00,-8.91,-2.88,-4.75,-0.39,0.33,0.32,-21.89,-19.02,-8.6811182.00,-9.23,-2.58,-3.40,-0.05,0.01,0.12,-21.89,-19.02,-8.6811195.00,-9.26,-3.68,-2.60,0.12,-0.10,0.01,-21.89,-19.02,-8.6811206.00,-9.26,-3.68,-2.60,0.12,-0.10,0.01,-21.89,-19.02,-8.6811218.00,-11.59,-0.75,-2.91,0.11,-0.27,-0.16,-21.89,-19.02,-8.6811230.00,-11.59,-0.75,-2.91,0.11,-0.27,-0.16,-21.89,-19.02,-8.6811243.00,-7.02,-5.03,-1.38,0.13,-0.34,-0.78,-21.89,-19.02,-8.6811254.00,-7.02,-5.03,-1.38,0.13,-0.34,-0.78,-21.89,-19.02,-8.6811265.00,-6.97,-4.07,-3.73,0.00,-0.27,-0.62,-21.89,-19.02,-8.6811277.00,-6.02,-5.60,-3.69,0.26,-0.39,-0.41,-21.89,-19.02,-8.6811290.00,-6.02,-5.60,-3.69,0.26,-0.39,-0.41,-21.89,-19.02,-8.6811301.00,-12.96,-3.43,-1.11,0.31,-0.48,0.21,-21.89,-19.02,-8.6811311.00,-12.96,-3.43,-1.11,0.31,-0.48,0.21,-21.89,-19.02,-8.6811323.00,-9.98,-3.05,0.09,-0.06,-0.15,0.16,-21.89,-19.02,-8.6811337.00,-9.51,-3.09,-3.64,-0.26,0.10,0.08,-21.89,-19.02,-8.6811350.00,-9.51,-3.09,-3.64,-0.26,0.10,0.08,-21.89,-19.02,-8.6811362.00,-10.83,-3.17,-3.93,-0.11,0.00,0.10,-21.89,-19.02,-8.6811374.00,-10.83,-3.17,-3.93,-0.11,0.00,0.10,-21.89,-19.02,-8.6811387.00,-9.42,-3.06,-1.87,-0.08,-0.04,-0.08,-21.89,-19.02,-8.6811399.00,-8.25,-4.43,-1.33,-0.24,-0.01,-0.12,-21.89,-19.02,-8.6811411.00,-8.25,-4.43,-1.33,-0.24,-0.01,-0.12,-21.89,-19.02,-8.6811423.00,-6.63,-4.67,-3.23,-0.37,0.03,0.11,-22.31,-18.00,-6.8111436.00,-6.07,-5.24,-2.98,-0.22,-0.08,0.37,-22.31,-18.00,-6.8111448.00,-6.07,-5.24,-2.98,-0.22,-0.08,0.37,-22.31,-18.00,-6.8111459.00,-7.82,-4.01,-4.12,0.02,-0.19,0.69,-22.31,-18.00,-6.8111471.00,-7.82,-4.01,-4.12,0.02,-0.19,0.69,-22.31,-18.00,-6.8111485.00,-10.71,-2.53,0.64,0.13,-0.29,0.45,-22.31,-18.00,-6.8111497.00,-9.52,-3.55,-1.45,-0.31,0.06,0.08,-22.31,-18.00,-6.8111509.00,-9.52,-3.55,-1.45,-0.31,0.06,0.08,-22.31,-18.00,-6.8111521.00,-9.01,-2.46,-4.87,-0.58,0.03,0.04,-22.31,-18.00,-6.8111535.00,-8.96,-4.11,-1.97,-0.50,-0.35,-0.09,-23.55,-17.66,-7.7411547.00,-8.96,-4.11,-1.97,-0.50,-0.35,-0.09,-23.55,-17.66,-7.7411558.00,-9.05,-2.25,-3.73,-0.51,-0.20,0.03,-23.55,-17.66,-7.7411570.00,-9.05,-2.25,-3.73,-0.51,-0.20,0.03,-23.55,-17.66,-7.7411583.00,-9.00,-3.74,-2.78,-0.13,-0.14,0.01,-23.55,-17.66,-7.7411595.00,-8.78,-4.07,-2.35,0.05,-0.02,0.16,-23.55,-17.66,-7.7411607.00,-8.78,-4.07,-2.35,0.05,-0.02,0.16,-23.55,-17.66,-7.7411619.00,-9.32,-1.88,-2.94,-0.05,0.10,0.33,-23.55,-17.66,-7.7411632.00,-9.32,-1.88,-2.94,-0.05,0.10,0.33,-23.55,-17.66,-7.7411644.00,-9.10,-3.88,-0.74,-0.08,-0.02,0.13,-23.55,-17.66,-7.7411656.00,-9.17,-3.54,-2.12,-0.30,0.06,0.12,-22.72,-16.64,-6.1811668.00,-9.17,-3.54,-2.12,-0.30,0.06,0.12,-22.72,-16.64,-6.1811682.00,-9.35,-1.90,-3.73,-0.47,0.01,0.13,-22.72,-16.64,-6.1811694.00,-9.35,-1.90,-3.73,-0.47,0.01,0.13,-22.72,-16.64,-6.1811704.00,-9.17,-2.46,-2.64,-0.42,-0.25,-0.09,-22.72,-16.64,-6.1811716.00,-8.90,-3.55,-2.68,-0.39,-0.27,-0.19,-22.72,-16.64,-6.1811730.00,-8.90,-3.55,-2.68,-0.39,-0.27,-0.19,-22.72,-16.64,-6.1811741.00,-9.08,-2.69,-3.55,-0.34,-0.04,-0.01,-22.72,-16.64,-6.1811753.00,-9.08,-2.69,-3.55,-0.34,-0.04,-0.01,-22.72,-16.64,-6.1811765.00,-9.28,-3.99,-1.56,-0.29,0.01,0.13,-22.72,-16.64,-6.1811778.00,-9.39,-2.10,-2.33,-0.50,0.16,0.35,-23.55,-15.62,-6.4911790.00,-9.39,-2.10,-2.33,-0.50,0.16,0.35,-23.55,-15.62,-6.4911802.00,-9.21,-3.53,-2.19,-0.49,0.14,0.29,-23.55,-15.62,-6.4911814.00,-9.15,-1.97,-2.93,-0.53,0.08,0.28,-23.55,-15.62,-6.4911828.00,-9.15,-1.97,-2.93,-0.53,0.08,0.28,-23.55,-15.62,-6.4911840.00,-9.26,-1.76,-3.32,-0.49,-0.08,0.08,-23.55,-15.62,-6.4911851.00,-9.26,-1.76,-3.32,-0.49,-0.08,0.08,-23.55,-15.62,-6.4911864.00,-9.03,-2.87,-3.28,-0.38,-0.23,-0.09,-23.55,-15.62,-6.4911876.00,-9.01,-2.58,-4.45,-0.24,-0.15,-0.01,-23.55,-15.62,-6.4911887.00,-9.01,-2.58,-4.45,-0.24,-0.15,-0.01,-23.55,-15.62,-6.4911897.00,-9.06,-3.20,-2.48,-0.05,-0.17,0.09,-23.55,-15.62,-6.4911911.00,-9.06,-3.20,-2.48,-0.05,-0.17,0.09,-23.55,-15.62,-6.4911923.00,-9.12,-2.53,-2.44,-0.08,-0.01,0.27,-25.82,-13.41,-7.9011935.00,-8.98,-2.72,-3.16,-0.05,0.12,0.30,-25.82,-13.41,-7.9011947.00,-8.98,-2.72,-3.16,-0.05,0.12,0.30,-25.82,-13.41,-7.9011961.00,-8.70,-2.49,-3.05,0.19,0.12,0.19,-25.82,-13.41,-7.9011973.00,-8.70,-2.49,-3.05,0.19,0.12,0.19,-25.82,-13.41,-7.9011984.00,-9.43,-3.28,-1.34,0.43,0.15,0.01,-25.82,-13.41,-7.9011995.00,-9.52,-1.83,-0.42,0.20,0.28,-0.01,-25.82,-13.41,-7.9012009.00,-9.52,-1.83,-0.42,0.20,0.28,-0.01,-25.82,-13.41,-7.9012021.00,-9.58,-2.61,-1.55,-0.04,0.53,-0.10,-25.82,-13.41,-7.9012033.00,-9.58,-2.61,-1.55,-0.04,0.53,-0.10,-25.82,-13.41,-7.9012044.00,-9.57,0.02,-4.08,-0.02,0.68,-0.23,-21.89,-13.58,-7.4312058.00,-12.73,-1.65,-1.14,0.34,0.72,-0.66,-21.89,-13.58,-7.4312069.00,-12.73,-1.65,-1.14,0.34,0.72,-0.66,-21.89,-13.58,-7.4312080.00,-8.85,-1.68,-2.83,0.36,0.99,-0.82,-21.89,-13.58,-7.4312092.00,-8.85,-1.68,-2.83,0.36,0.99,-0.82,-21.89,-13.58,-7.4312106.00,-6.88,-2.20,-3.91,0.56,0.45,-0.65,-21.89,-13.58,-7.4312118.00,-9.44,-1.71,-1.99,0.67,-0.20,-0.27,-21.89,-13.58,-7.4312128.00,-9.44,-1.71,-1.99,0.67,-0.20,-0.27,-21.89,-13.58,-7.4312140.00,-7.18,-3.29,-4.48,0.67,-0.07,-0.23,-21.89,-13.58,-7.4312154.00,-7.18,-3.29,-4.48,0.67,-0.07,-0.23,-21.89,-13.58,-7.4312165.00,-6.04,-3.58,-4.42,0.98,0.23,-0.21,-20.65,-16.98,-8.6812176.00,-6.39,-4.32,-5.07,1.43,0.63,-0.36,-20.65,-16.98,-8.6812188.00,-6.39,-4.32,-5.07,1.43,0.63,-0.36,-20.65,-16.98,-8.6812201.00,-7.32,-7.45,-6.32,1.58,0.83,-0.55,-20.65,-16.98,-8.6812212.00,-7.32,-7.45,-6.32,1.58,0.83,-0.55,-20.65,-16.98,-8.6812224.00,-8.95,-6.93,-5.26,1.06,0.47,-0.36,-20.65,-16.98,-8.6812236.00,-7.75,-4.92,-2.59,0.58,0.11,-0.21,-20.65,-16.98,-8.6812249.00,-7.75,-4.92,-2.59,0.58,0.11,-0.21,-20.65,-16.98,-8.6812260.00,-8.98,-4.28,-1.68,0.21,-0.11,-0.06,-20.65,-16.98,-8.6812271.00,-8.98,-4.28,-1.68,0.21,-0.11,-0.06,-20.65,-16.98,-8.6812283.00,-9.82,-3.54,-2.87,-0.22,-0.13,0.07,-18.38,-20.21,-7.9012296.00,-8.45,-3.25,-4.02,-0.36,-0.05,0.05,-18.38,-20.21,-7.9012307.00,-8.45,-3.25,-4.02,-0.36,-0.05,0.05,-18.38,-20.21,-7.9012319.00,-8.45,-3.51,-3.75,-0.19,-0.13,0.05,-18.38,-20.21,-7.9012331.00,-8.45,-3.51,-3.75,-0.19,-0.13,0.05,-18.38,-20.21,-7.9012344.00,-8.28,-3.82,-3.57,-0.05,-0.20,0.08,-18.38,-20.21,-7.9012356.00,-8.56,-3.91,-3.43,-0.01,-0.29,0.06,-18.38,-20.21,-7.9012367.00,-8.56,-3.91,-3.43,-0.01,-0.29,0.06,-18.38,-20.21,-7.9012378.00,-8.74,-5.12,-2.48,-0.11,-0.30,-0.05,-18.38,-20.21,-7.9012382.00,-8.74,-5.12,-2.48,-0.11,-0.30,-0.05,-18.38,-20.21,-7.9012462.00,-9.02,-4.84,-2.68,0.54,0.03,-0.15,-19.00,-20.72,-7.7412540.00,-8.65,-2.38,-3.91,-0.92,-0.07,0.35,-19.42,-18.68,-8.0612620.00,-8.61,-3.82,-3.31,0.41,-0.71,-0.65,-19.42,-18.68,-8.0612709.00,-9.29,-4.02,-1.56,0.03,0.47,0.43,-19.00,-21.06,-7.1212720.00,-9.38,-2.96,-3.43,-0.03,0.40,0.38,-19.00,-21.06,-7.1212730.00,-9.38,-2.96,-3.43,-0.03,0.40,0.38,-19.00,-21.06,-7.1212742.00,-8.83,-4.57,-2.71,-0.10,0.10,0.22,-19.00,-21.06,-7.1212755.00,-10.10,-2.94,-3.12,-0.42,-0.13,0.13,-19.00,-21.06,-7.1212767.00,-10.10,-2.94,-3.12,-0.42,-0.13,0.13,-19.00,-21.06,-7.1212778.00,-7.58,-3.45,-3.61,-0.54,-0.27,-0.14,-20.45,-20.21,-7.9012790.00,-7.58,-3.45,-3.61,-0.54,-0.27,-0.14,-20.45,-20.21,-7.9012803.00,-5.97,-4.97,-4.93,-0.22,-0.36,-0.16,-20.45,-20.21,-7.9012813.00,-5.97,-4.97,-4.93,-0.22,-0.36,-0.16,-20.45,-20.21,-7.9012825.00,-9.56,-4.45,-3.46,0.19,-0.50,0.13,-20.45,-20.21,-7.9012837.00,-9.25,-4.08,-1.40,0.20,-0.30,0.14,-20.45,-20.21,-7.9012850.00,-9.25,-4.08,-1.40,0.20,-0.30,0.14,-20.45,-20.21,-7.9012862.00,-9.26,-2.96,-1.87,0.05,-0.05,0.10,-20.45,-20.21,-7.9012874.00,-9.26,-2.96,-1.87,0.05,-0.05,0.10,-20.45,-20.21,-7.9012886.00,-8.71,-4.06,-2.90,0.08,0.13,0.04,-20.45,-20.21,-7.9012899.00,-8.88,-3.33,-3.46,-0.04,0.19,0.15,-20.45,-20.21,-7.9012910.00,-8.88,-3.33,-3.46,-0.04,0.19,0.15,-20.45,-20.21,-7.9012921.00,-8.89,-4.10,-1.96,-0.11,0.07,0.14,-21.69,-19.87,-8.8412933.00,-8.89,-4.10,-1.96,-0.11,0.07,0.14,-21.69,-19.87,-8.8412946.00,-8.96,-4.06,-2.46,-0.29,0.08,0.14,-21.69,-19.87,-8.8412956.00,-9.10,-3.81,-2.70,-0.44,0.07,0.19,-21.69,-19.87,-8.8412968.00,-9.10,-3.81,-2.70,-0.44,0.07,0.19,-21.69,-19.87,-8.8412980.00,-9.00,-3.01,-3.64,-0.51,-0.09,0.18,-21.69,-19.87,-8.8412993.00,-9.00,-3.01,-3.64,-0.51,-0.09,0.18,-21.69,-19.87,-8.8413005.00,-8.53,-3.22,-3.95,-0.41,-0.27,0.02,-21.69,-19.87,-8.8413017.00,-8.06,-4.07,-4.13,-0.18,-0.29,-0.03,-21.69,-19.87,-8.8413029.00,-8.06,-4.07,-4.13,-0.18,-0.29,-0.03,-21.69,-19.87,-8.8413042.00,-8.70,-3.70,-3.38,0.10,-0.19,0.02,-21.27,-18.17,-8.8413053.00,-8.70,-3.70,-3.38,0.10,-0.19,0.02,-21.27,-18.17,-8.8413065.00,-8.47,-4.68,-1.93,0.18,0.01,0.14,-21.27,-18.17,-8.8413077.00,-8.95,-3.03,-2.77,-0.00,0.17,0.24,-21.27,-18.17,-8.8413090.00,-8.95,-3.03,-2.77,-0.00,0.17,0.24,-21.27,-18.17,-8.8413101.00,-8.90,-3.38,-2.72,-0.05,0.06,0.11,-21.27,-18.17,-8.8413112.00,-8.90,-3.38,-2.72,-0.05,0.06,0.11,-21.27,-18.17,-8.8413124.00,-9.18,-3.20,-3.58,-0.18,-0.02,0.03,-21.27,-18.17,-8.8413138.00,-9.14,-2.50,-3.44,-0.13,-0.30,-0.12,-21.27,-18.17,-8.8413149.00,-9.14,-2.50,-3.44,-0.13,-0.30,-0.12,-21.27,-18.17,-8.8413161.00,-8.65,-3.44,-3.41,0.00,-0.53,-0.31,-21.07,-17.66,-7.1213173.00,-8.65,-3.44,-3.41,0.00,-0.53,-0.31,-21.07,-17.66,-7.1213186.00,-8.24,-4.34,-3.03,0.09,-0.46,-0.26,-21.07,-17.66,-7.1213198.00,-8.79,-3.21,-3.02,0.12,-0.25,-0.07,-21.07,-17.66,-7.1213210.00,-8.79,-3.21,-3.02,0.12,-0.25,-0.07,-21.07,-17.66,-7.1213222.00,-9.05,-4.49,-1.30,0.11,-0.09,0.01,-21.07,-17.66,-7.1213236.00,-9.07,-3.82,-1.87,-0.13,0.13,0.17,-21.07,-17.66,-7.1213248.00,-9.07,-3.82,-1.87,-0.13,0.13,0.17,-21.07,-17.66,-7.1213259.00,-8.95,-3.90,-2.15,-0.25,0.18,0.24,-21.07,-17.66,-7.1213271.00,-8.95,-3.90,-2.15,-0.25,0.18,0.24,-21.07,-17.66,-7.1213284.00,-8.87,-3.05,-4.15,-0.26,0.10,0.24,-21.07,-18.34,-7.1213296.00,-8.96,-3.61,-2.55,-0.06,-0.15,0.12,-21.07,-18.34,-7.1213308.00,-8.96,-3.61,-2.55,-0.06,-0.15,0.12,-21.07,-18.34,-7.1213320.00,-9.00,-1.97,-4.22,-0.09,-0.24,0.04,-21.07,-18.34,-7.1213333.00,-9.00,-1.97,-4.22,-0.09,-0.24,0.04,-21.07,-18.34,-7.1213344.00,-8.69,-3.36,-3.81,0.25,-0.35,-0.08,-21.07,-18.34,-7.1213355.00,-8.69,-3.36,-3.81,0.25,-0.35,-0.08,-21.07,-18.34,-7.1213359.00,-8.95,-4.36,-2.34,0.39,-0.32,0.03,-21.07,-18.34,-7.1213436.00,-8.84,-3.40,-2.04,0.31,0.03,0.05,-23.75,-18.17,-6.6513515.00,-10.80,-2.67,-1.96,0.07,0.19,-0.37,-23.75,-18.17,-6.6513593.00,-7.82,-2.54,-2.14,-0.09,0.12,-0.25,-22.72,-20.04,-6.8113684.00,-6.99,-6.03,-4.69,0.80,0.29,-0.25,-21.48,-19.02,-7.7413696.00,-9.77,-3.90,-1.83,0.70,0.12,-0.09,-21.48,-19.02,-7.7413708.00,-9.77,-3.90,-1.83,0.70,0.12,-0.09,-21.48,-19.02,-7.7413720.00,-10.18,-3.72,-0.74,0.41,0.14,-0.23,-21.48,-19.02,-7.7413733.00,-10.18,-3.72,-0.74,0.41,0.14,-0.23,-21.48,-19.02,-7.7413746.00,-8.99,-4.32,-1.33,-0.07,0.11,-0.28,-21.48,-19.02,-7.7413758.00,-8.34,-3.99,-3.88,-0.45,0.07,-0.11,-21.48,-19.02,-7.7413770.00,-8.34,-3.99,-3.88,-0.45,0.07,-0.11,-21.48,-19.02,-7.7413783.00,-8.32,-3.95,-4.10,-0.31,-0.01,0.00,-18.80,-18.85,-6.6513795.00,-8.32,-3.95,-4.10,-0.31,-0.01,0.00,-18.80,-18.85,-6.6513806.00,-8.09,-4.23,-3.73,-0.08,-0.07,0.05,-18.80,-18.85,-6.6513817.00,-8.70,-3.97,-3.16,0.02,-0.09,0.11,-18.80,-18.85,-6.6513831.00,-8.70,-3.97,-3.16,0.02,-0.09,0.11,-18.80,-18.85,-6.6513843.00,-8.26,-4.13,-3.17,0.01,-0.10,0.08,-18.80,-18.85,-6.6513854.00,-8.26,-4.13,-3.17,0.01,-0.10,0.08,-18.80,-18.85,-6.6513866.00,-7.87,-4.33,-3.34,0.02,-0.20,0.14,-18.80,-18.85,-6.6513879.00,-9.11,-3.80,-2.95,0.00,-0.27,0.15,-18.80,-18.85,-6.6513890.00,-9.11,-3.80,-2.95,0.00,-0.27,0.15,-18.80,-18.85,-6.6513902.00,-8.92,-4.04,-2.58,-0.11,-0.18,0.03,-18.80,-18.85,-6.6513914.00,-8.92,-4.04,-2.58,-0.11,-0.18,0.03,-18.80,-18.85,-6.6513928.00,-8.77,-3.79,-2.51,-0.21,-0.13,0.00,-19.21,-19.87,-6.6513940.00,-8.82,-3.95,-2.89,-0.28,-0.10,-0.02,-19.21,-19.87,-6.6513952.00,-8.82,-3.95,-2.89,-0.28,-0.10,-0.02,-19.21,-19.87,-6.6513964.00,-8.95,-3.76,-2.98,-0.29,-0.20,-0.08,-19.21,-19.87,-6.6513977.00,-8.76,-4.66,-1.90,-0.27,-0.28,-0.12,-19.21,-19.87,-6.6513989.00,-8.76,-4.66,-1.90,-0.27,-0.28,-0.12,-19.21,-19.87,-6.6514001.00,-8.54,-3.57,-4.40,-0.34,-0.17,-0.06,-19.21,-19.87,-6.6514012.00,-8.54,-3.57,-4.40,-0.34,-0.17,-0.06,-19.21,-19.87,-6.6514025.00,-8.46,-4.12,-3.69,0.01,-0.17,-0.02,-19.21,-19.87,-6.6514037.00,-8.30,-4.94,-2.35,0.18,-0.09,0.10,-20.65,-20.38,-8.0614049.00,-8.30,-4.94,-2.35,0.18,-0.09,0.10,-20.65,-20.38,-8.0614060.00,-8.58,-4.04,-3.07,0.15,0.05,0.19,-20.65,-20.38,-8.0614073.00,-8.58,-4.04,-3.07,0.15,0.05,0.19,-20.65,-20.38,-8.0614084.00,-8.67,-4.27,-2.21,0.12,0.03,0.15,-20.65,-20.38,-8.0614096.00,-8.68,-3.96,-2.67,-0.10,-0.00,0.12,-20.65,-20.38,-8.0614108.00,-8.68,-3.96,-2.67,-0.10,-0.00,0.12,-20.65,-20.38,-8.0614121.00,-8.79,-3.58,-2.98,-0.27,-0.04,0.06,-20.65,-20.38,-8.0614133.00,-8.79,-3.58,-2.98,-0.27,-0.04,0.06,-20.65,-20.38,-8.0614145.00,-9.02,-3.03,-3.37,-0.34,-0.15,-0.03,-20.65,-20.38,-8.0614157.00,-8.71,-4.06,-2.23,-0.28,-0.30,-0.16,-20.65,-18.68,-6.8114170.00,-8.71,-4.06,-2.23,-0.28,-0.30,-0.16,-20.65,-18.68,-6.8114182.00,-8.43,-4.39,-3.27,-0.39,-0.25,-0.14,-20.65,-18.68,-6.8114194.00,-8.43,-4.39,-3.27,-0.39,-0.25,-0.14,-20.65,-18.68,-6.8114206.00,-8.59,-3.12,-4.46,-0.27,-0.13,-0.03,-20.65,-18.68,-6.8114219.00,-8.57,-5.16,-2.22,0.10,-0.05,0.06,-20.65,-18.68,-6.8114229.00,-8.57,-5.16,-2.22,0.10,-0.05,0.06,-20.65,-18.68,-6.8114241.00,-8.72,-2.82,-3.51,0.03,0.18,0.34,-20.65,-18.68,-6.8114253.00,-8.72,-2.82,-3.51,0.03,0.18,0.34,-20.65,-18.68,-6.8114266.00,-8.72,-4.25,-2.05,0.09,0.07,0.23,-20.65,-18.68,-6.8114278.00,-8.74,-3.71,-2.82,-0.09,0.02,0.14,-19.00,-19.70,-8.3714289.00,-8.74,-3.71,-2.82,-0.09,0.02,0.14,-19.00,-19.70,-8.3714301.00,-9.09,-3.16,-3.24,-0.25,-0.05,0.05,-19.00,-19.70,-8.3714313.00,-9.09,-3.16,-3.24,-0.25,-0.05,0.05,-19.00,-19.70,-8.3714325.00,-8.88,-3.29,-2.79,-0.28,-0.28,-0.13,-19.00,-19.70,-8.3714337.00,-8.64,-4.42,-2.15,-0.29,-0.32,-0.23,-19.00,-19.70,-8.3714349.00,-8.64,-4.42,-2.15,-0.29,-0.32,-0.23,-19.00,-19.70,-8.3714362.00,-8.39,-3.91,-3.88,-0.33,-0.18,-0.07,-19.00,-19.70,-8.3714373.00,-8.39,-3.91,-3.88,-0.33,-0.18,-0.07,-19.00,-19.70,-8.3714384.00,-8.65,-4.41,-2.52,-0.01,-0.05,0.04,-19.00,-19.70,-8.3714395.00,-8.65,-4.41,-2.52,-0.01,-0.05,0.04,-19.00,-19.70,-8.3714408.00,-8.83,-3.17,-2.90,0.06,0.15,0.23,-19.00,-19.70,-8.3714420.00,-9.00,-3.51,-2.64,0.13,0.19,0.18,-20.45,-20.55,-7.2814431.00,-9.00,-3.51,-2.64,0.13,0.19,0.18,-20.45,-20.55,-7.2814443.00,-9.35,-3.34,-2.99,0.03,0.05,0.11,-20.45,-20.55,-7.2814456.00,-9.17,-3.79,-2.06,-0.17,-0.12,-0.11,-20.45,-20.55,-7.2814467.00,-9.17,-3.79,-2.06,-0.17,-0.12,-0.11,-20.45,-20.55,-7.2814478.00,-7.23,-3.95,-3.80,-0.36,-0.16,-0.16,-20.45,-20.55,-7.2814490.00,-7.23,-3.95,-3.80,-0.36,-0.16,-0.16,-20.45,-20.55,-7.2814502.00,-7.38,-4.73,-3.87,-0.23,-0.26,0.01,-20.45,-20.55,-7.2814514.00,-7.38,-4.73,-3.87,-0.23,-0.26,0.01,-20.45,-20.55,-7.2814526.00,-9.46,-3.46,-2.94,-0.18,-0.20,0.16,-20.45,-20.55,-7.2814538.00,-9.08,-3.14,-2.97,-0.15,0.01,0.14,-22.31,-18.34,-8.0614552.00,-9.08,-3.14,-2.97,-0.15,0.01,0.14,-22.31,-18.34,-8.0614564.00,-8.98,-3.65,-3.47,-0.08,0.08,0.20,-22.31,-18.34,-8.0614576.00,-8.99,-3.51,-2.52,-0.08,0.13,0.32,-22.31,-18.34,-8.0614588.00,-8.99,-3.51,-2.52,-0.08,0.13,0.32,-22.31,-18.34,-8.0614601.00,-9.08,-3.91,-1.76,-0.10,0.09,0.25,-22.31,-18.34,-8.0614613.00,-9.08,-3.91,-1.76,-0.10,0.09,0.25,-22.31,-18.34,-8.0614625.00,-8.79,-3.57,-2.85,-0.25,0.14,0.26,-22.31,-18.34,-8.0614636.00,-8.98,-2.63,-3.12,-0.36,0.04,0.19,-22.31,-18.34,-8.0614649.00,-8.98,-2.63,-3.12,-0.36,0.04,0.19,-22.31,-18.34,-8.0614661.00,-9.06,-3.05,-3.35,-0.35,-0.21,-0.11,-20.45,-16.47,-7.9014673.00,-9.06,-3.05,-3.35,-0.35,-0.21,-0.11,-20.45,-16.47,-7.9014687.00,-8.48,-2.70,-4.75,-0.25,-0.34,-0.37,-20.45,-16.47,-7.9014699.00,-8.15,-2.93,-4.42,0.08,-0.35,-0.52,-20.45,-16.47,-7.9014711.00,-8.15,-2.93,-4.42,0.08,-0.35,-0.52,-20.45,-16.47,-7.9014723.00,-8.89,-3.94,-2.88,0.25,-0.24,-0.41,-20.45,-16.47,-7.9014736.00,-8.89,-4.65,-1.29,0.17,-0.06,-0.13,-20.45,-16.47,-7.9014747.00,-8.89,-4.65,-1.29,0.17,-0.06,-0.13,-20.45,-16.47,-7.9014757.00,-9.11,-3.59,-2.27,-0.17,0.15,0.16,-20.45,-16.47,-7.9014769.00,-9.11,-3.59,-2.27,-0.17,0.15,0.16,-20.45,-16.47,-7.9014782.00,-9.16,-3.64,-1.92,-0.48,0.21,0.40,-20.04,-17.49,-8.2114794.00,-9.16,-3.64,-1.92,-0.48,0.21,0.40,-20.04,-17.49,-8.2114805.00,-8.27,-4.04,-2.62,-0.69,0.26,0.59,-20.04,-17.49,-8.2114817.00,-8.72,-2.79,-4.53,-0.62,0.20,0.56,-20.04,-17.49,-8.2114830.00,-8.72,-2.79,-4.53,-0.62,0.20,0.56,-20.04,-17.49,-8.2114842.00,-8.80,-2.09,-4.57,-0.32,0.03,0.37,-20.04,-17.49,-8.2114854.00,-8.80,-2.09,-4.57,-0.32,0.03,0.37,-20.04,-17.49,-8.2114866.00,-8.95,-2.59,-3.55,0.00,-0.15,0.11,-20.04,-17.49,-8.2114879.00,-9.18,-2.11,-2.93,0.06,-0.31,-0.11,-20.04,-17.49,-8.2114890.00,-9.18,-2.11,-2.93,0.06,-0.31,-0.11,-20.04,-17.49,-8.2114901.00,-8.89,-3.31,-2.27,-0.08,-0.39,-0.31,-22.10,-17.15,-8.8414913.00,-8.89,-3.31,-2.27,-0.08,-0.39,-0.31,-22.10,-17.15,-8.8414926.00,-8.61,-3.35,-3.73,-0.31,-0.27,-0.19,-22.10,-17.15,-8.8414936.00,-8.77,-2.81,-3.99,-0.29,-0.15,-0.00,-22.10,-17.15,-8.8414948.00,-8.77,-2.81,-3.99,-0.29,-0.15,-0.00,-22.10,-17.15,-8.8414960.00,-8.89,-4.21,-1.52,-0.06,-0.06,0.10,-22.10,-17.15,-8.8414973.00,-8.89,-4.21,-1.52,-0.06,-0.06,0.10,-22.10,-17.15,-8.8414984.00,-9.08,-2.71,-2.68,-0.09,0.25,0.33,-22.10,-17.15,-8.8414996.00,-9.62,-2.22,-6.44,0.06,0.29,0.29,-22.10,-17.15,-8.8415007.00,-9.62,-2.22,-6.44,0.06,0.29,0.29,-22.10,-17.15,-8.8415021.00,-14.10,0.90,-2.89,0.22,-0.07,-0.06,-22.10,-17.15,-8.8415032.00,-14.10,0.90,-2.89,0.22,-0.07,-0.06,-22.10,-17.15,-8.8415043.00,-10.01,-2.11,1.10,-0.01,0.09,-0.87,-21.27,-16.13,-8.8415054.00,-10.01,-2.11,1.10,-0.01,0.09,-0.87,-21.27,-16.13,-8.8415067.00,-6.61,-2.32,-3.73,-0.22,0.13,-0.82,-21.27,-16.13,-8.8415079.00,-8.59,-2.98,-0.50,0.13,-0.45,-0.51,-21.27,-16.13,-8.8415089.00,-8.59,-2.98,-0.50,0.13,-0.45,-0.51,-21.27,-16.13,-8.8415101.00,-4.91,-4.47,-3.90,0.34,-0.10,-0.46,-21.27,-16.13,-8.8415105.00,-4.91,-4.47,-3.90,0.34,-0.10,-0.46,-21.27,-16.13,-8.8415186.00,-8.69,-3.66,-4.53,1.00,0.18,-0.06,-21.07,-17.32,-7.4315263.00,-8.10,-3.65,-4.01,-0.40,0.05,-0.12,-21.07,-17.32,-7.4315343.00,-9.01,-4.25,-1.65,-0.21,-0.07,0.07,-20.45,-19.53,-7.2815431.00,-8.29,-3.46,-5.10,0.01,-0.34,-0.23,-23.13,-18.00,-8.3715443.00,-8.75,-3.18,-2.72,0.50,-0.29,-0.23,-23.13,-18.00,-8.3715455.00,-8.75,-3.18,-2.72,0.50,-0.29,-0.23,-23.13,-18.00,-8.3715467.00,-8.90,-5.82,-1.42,0.42,-0.01,-0.10,-23.13,-18.00,-8.3715481.00,-8.80,-3.80,-4.31,-0.09,0.38,0.43,-23.13,-18.00,-8.3715492.00,-8.80,-3.80,-4.31,-0.09,0.38,0.43,-23.13,-18.00,-8.3715504.00,-8.25,-3.31,-4.57,0.06,0.33,0.59,-23.13,-18.00,-8.3715516.00,-8.25,-3.31,-4.57,0.06,0.33,0.59,-23.13,-18.00,-8.3715528.00,-8.75,-2.27,-4.88,0.18,0.25,0.54,-23.13,-18.00,-8.3715540.00,-8.56,-3.64,-3.24,0.32,0.13,0.32,-21.27,-18.51,-8.5315552.00,-8.56,-3.64,-3.24,0.32,0.13,0.32,-21.27,-18.51,-8.5315563.00,-8.90,-3.20,-3.50,0.31,0.02,0.14,-21.27,-18.51,-8.5315576.00,-8.67,-3.63,-2.43,0.20,-0.09,-0.07,-21.27,-18.51,-8.5315588.00,-8.67,-3.63,-2.43,0.20,-0.09,-0.07,-21.27,-18.51,-8.5315600.00,-9.48,-2.66,-2.86,-0.19,-0.06,-0.20,-21.27,-18.51,-8.5315611.00,-9.48,-2.66,-2.86,-0.19,-0.06,-0.20,-21.27,-18.51,-8.5315624.00,-9.55,-3.28,-2.39,-0.47,-0.16,-0.30,-21.27,-18.51,-8.5315635.00,-9.55,-3.28,-2.39,-0.47,-0.16,-0.30,-21.27,-18.51,-8.5315646.00,-9.27,-3.44,-2.77,-0.55,-0.24,-0.30,-21.27,-18.51,-8.5315658.00,-10.38,-3.74,-2.71,-0.59,-0.18,-0.44,-21.48,-18.34,-8.3715671.00,-10.38,-3.74,-2.71,-0.59,-0.18,-0.44,-21.48,-18.34,-8.3715682.00,-6.64,-2.86,-6.22,-0.60,-0.07,-0.67,-21.48,-18.34,-8.3715694.00,-6.64,-2.86,-6.22,-0.60,-0.07,-0.67,-21.48,-18.34,-8.3715706.00,-5.58,-4.31,-5.28,0.07,-0.50,-0.78,-21.48,-18.34,-8.3715719.00,-5.81,-5.50,-4.02,0.50,-0.73,-0.55,-21.48,-18.34,-8.3715731.00,-5.81,-5.50,-4.02,0.50,-0.73,-0.55,-21.48,-18.34,-8.3715743.00,-13.45,-3.80,-0.45,0.42,-0.74,0.06,-21.48,-18.34,-8.3715755.00,-13.45,-3.80,-0.45,0.42,-0.74,0.06,-21.48,-18.34,-8.3715768.00,-9.94,-2.76,-0.36,-0.07,-0.25,0.10,-21.48,-18.34,-8.3715780.00,-9.38,-4.15,-2.27,-0.15,0.06,0.03,-21.27,-20.21,-8.5315791.00,-9.38,-4.15,-2.27,-0.15,0.06,0.03,-21.27,-20.21,-8.5315802.00,-9.97,-3.28,-3.82,-0.24,0.12,0.16,-21.27,-20.21,-8.5315816.00,-9.97,-3.28,-3.82,-0.24,0.12,0.16,-21.27,-20.21,-8.5315827.00,-9.37,-3.86,-3.02,-0.15,0.11,-0.01,-21.27,-20.21,-8.5315838.00,-8.01,-3.91,-3.02,-0.14,0.15,-0.14,-21.27,-20.21,-8.5315852.00,-8.01,-3.91,-3.02,-0.14,0.15,-0.14,-21.27,-20.21,-8.5315864.00,-6.41,-4.70,-3.45,-0.14,0.03,-0.08,-21.27,-20.21,-8.5315875.00,-6.41,-4.70,-3.45,-0.14,0.03,-0.08,-21.27,-20.21,-8.5315886.00,-6.42,-5.09,-3.96,-0.04,-0.11,0.12,-21.27,-20.21,-8.5315899.00,-7.01,-4.61,-4.13,0.09,-0.26,0.37,-21.89,-17.32,-8.0615911.00,-7.01,-4.61,-4.13,0.09,-0.26,0.37,-21.89,-17.32,-8.0615921.00,-12.48,-2.37,-1.37,0.18,-0.33,0.42,-21.89,-17.32,-8.0615933.00,-12.48,-2.37,-1.37,0.18,-0.33,0.42,-21.89,-17.32,-8.0615947.00,-9.53,-3.17,-1.69,0.10,0.04,0.12,-21.89,-17.32,-8.0615958.00,-8.81,-3.65,-3.36,-0.03,0.21,0.11,-21.89,-17.32,-8.0615969.00,-8.81,-3.65,-3.36,-0.03,0.21,0.11,-21.89,-17.32,-8.0615980.00,-8.99,-3.41,-3.26,-0.08,0.23,0.18,-21.89,-17.32,-8.0615994.00,-8.99,-3.41,-3.26,-0.08,0.23,0.18,-21.89,-17.32,-8.0616006.00,-9.04,-2.69,-2.91,-0.21,0.17,0.21,-21.89,-17.32,-8.0616017.00,-8.91,-4.67,-2.19,-0.30,0.07,0.10,-21.89,-17.32,-8.0616028.00,-8.91,-4.67,-2.19,-0.30,0.07,0.10,-21.89,-17.32,-8.0616041.00,-8.98,-2.99,-3.77,-0.51,0.02,0.16,-20.65,-17.32,-8.3716053.00,-8.98,-2.99,-3.77,-0.51,0.02,0.16,-20.65,-17.32,-8.3716063.00,-8.52,-3.33,-3.66,-0.35,-0.19,-0.03,-20.65,-17.32,-8.3716075.00,-8.52,-3.33,-3.66,-0.35,-0.19,-0.03,-20.65,-17.32,-8.3716089.00,-8.24,-2.99,-4.98,-0.11,-0.27,-0.17,-20.65,-17.32,-8.3716101.00,-8.64,-4.07,-2.94,0.24,-0.31,-0.24,-20.65,-17.32,-8.3716112.00,-8.64,-4.07,-2.94,0.24,-0.31,-0.24,-20.65,-17.32,-8.3716124.00,-9.00,-3.08,-2.62,0.23,-0.16,-0.12,-20.65,-17.32,-8.3716137.00,-8.91,-4.48,-1.94,0.16,-0.05,-0.10,-20.65,-17.32,-8.3716148.00,-8.91,-4.48,-1.94,0.16,-0.05,-0.10,-20.65,-17.32,-8.3716160.00,-8.82,-4.11,-1.98,-0.18,0.10,0.10,-21.48,-18.00,-8.0616172.00,-8.82,-4.11,-1.98,-0.18,0.10,0.10,-21.48,-18.00,-8.0616186.00,-9.06,-3.57,-2.97,-0.49,0.09,0.19,-21.48,-18.00,-8.0616198.00,-8.83,-3.69,-2.40,-0.52,-0.08,0.17,-21.48,-18.00,-8.0616210.00,-8.83,-3.69,-2.40,-0.52,-0.08,0.17,-21.48,-18.00,-8.0616222.00,-8.33,-2.93,-5.15,-0.47,-0.06,0.18,-21.48,-18.00,-8.0616235.00,-8.33,-2.93,-5.15,-0.47,-0.06,0.18,-21.48,-18.00,-8.0616247.00,-8.61,-3.28,-3.61,-0.07,-0.05,0.12,-21.48,-18.00,-8.0616259.00,-8.89,-2.70,-3.22,0.12,0.06,0.12,-21.48,-18.00,-8.0616271.00,-8.89,-2.70,-3.22,0.12,0.06,0.12,-21.48,-18.00,-8.0616284.00,-8.93,-3.10,-3.56,0.25,0.18,0.06,-22.31,-17.66,-8.3716296.00,-8.93,-3.10,-3.56,0.25,0.18,0.06,-22.31,-17.66,-8.3716308.00,-9.40,-3.18,-3.46,0.27,0.11,-0.03,-22.31,-17.66,-8.3716319.00,-10.10,-2.98,-2.20,0.08,-0.00,-0.21,-22.31,-17.66,-8.3716332.00,-10.10,-2.98,-2.20,0.08,-0.00,-0.21,-22.31,-17.66,-8.3716343.00,-8.69,-3.85,-2.29,-0.21,-0.01,-0.38,-22.31,-17.66,-8.3716355.00,-8.69,-3.85,-2.29,-0.21,-0.01,-0.38,-22.31,-17.66,-8.3716367.00,-8.65,-3.41,-3.89,-0.47,-0.16,-0.30,-22.31,-17.66,-8.3716379.00,-7.37,-4.35,-3.86,-0.38,-0.30,-0.28,-22.31,-17.66,-8.3716391.00,-7.37,-4.35,-3.86,-0.38,-0.30,-0.28,-22.31,-17.66,-8.3716403.00,-6.57,-4.94,-4.01,-0.27,-0.38,-0.04,-19.21,-17.15,-6.9616415.00,-6.57,-4.94,-4.01,-0.27,-0.38,-0.04,-19.21,-17.15,-6.9616428.00,-6.87,-4.37,-4.36,-0.08,-0.43,0.28,-19.21,-17.15,-6.9616440.00,-12.93,-1.72,-1.17,0.21,-0.48,0.40,-19.21,-17.15,-6.9616452.00,-12.93,-1.72,-1.17,0.21,-0.48,0.40,-19.21,-17.15,-6.9616464.00,-9.55,-2.85,-1.28,0.20,-0.15,0.06,-19.21,-17.15,-6.9616477.00,-8.75,-3.06,-4.10,0.11,0.06,0.00,-19.21,-17.15,-6.9616488.00,-8.75,-3.06,-4.10,0.11,0.06,0.00,-19.21,-17.15,-6.9616499.00,-8.87,-3.77,-3.85,0.26,0.06,-0.01,-19.21,-17.15,-6.9616511.00,-8.87,-3.77,-3.85,0.26,0.06,-0.01,-19.21,-17.15,-6.9616525.00,-8.79,-4.61,-1.88,0.27,0.14,0.05,-19.21,-17.15,-6.9616535.00,-8.79,-4.61,-1.88,0.27,0.14,0.05,-19.21,-17.15,-6.9616547.00,-9.45,-2.11,-3.00,0.01,0.26,0.19,-21.48,-18.00,-8.6816559.00,-8.93,-4.95,-1.42,-0.10,0.07,0.04,-21.48,-18.00,-8.6816572.00,-8.93,-4.95,-1.42,-0.10,0.07,0.04,-21.48,-18.00,-8.6816583.00,-9.05,-3.96,-3.03,-0.48,0.11,0.18,-21.48,-18.00,-8.6816595.00,-9.05,-3.96,-3.03,-0.48,0.11,0.18,-21.48,-18.00,-8.6816607.00,-9.21,-1.54,-4.45,-0.62,-0.10,0.15,-21.48,-18.00,-8.6816620.00,-8.92,-3.84,-2.95,-0.42,-0.41,-0.14,-21.48,-18.00,-8.6816632.00,-8.92,-3.84,-2.95,-0.42,-0.41,-0.14,-21.48,-18.00,-8.6816643.00,-8.70,-2.32,-4.35,-0.50,-0.48,-0.25,-21.48,-18.00,-8.6816654.00,-8.70,-2.32,-4.35,-0.50,-0.48,-0.25,-21.48,-18.00,-8.6816667.00,-8.65,-2.41,-4.51,-0.28,-0.64,-0.47,-24.17,-15.79,-8.2116678.00,-8.51,-4.30,-3.26,0.16,-0.55,-0.50,-24.17,-15.79,-8.2116690.00,-8.51,-4.30,-3.26,0.16,-0.55,-0.50,-24.17,-15.79,-8.2116702.00,-8.91,-2.92,-3.13,0.33,-0.30,-0.22,-24.17,-15.79,-8.2116714.00,-8.91,-2.92,-3.13,0.33,-0.30,-0.22,-24.17,-15.79,-8.2116726.00,-8.73,-5.63,-1.56,0.38,0.03,-0.03,-24.17,-15.79,-8.2116738.00,-8.98,-3.59,-2.95,0.11,0.32,0.28,-24.17,-15.79,-8.2116750.00,-8.98,-3.59,-2.95,0.11,0.32,0.28,-24.17,-15.79,-8.2116763.00,-8.81,-4.54,-1.50,-0.02,0.34,0.38,-24.17,-15.79,-8.2116775.00,-8.81,-4.54,-1.50,-0.02,0.34,0.38,-24.17,-15.79,-8.2116787.00,-9.47,-2.20,-3.24,-0.41,0.37,0.49,-21.69,-14.77,-8.2116800.00,-9.13,-3.58,-2.13,-0.57,0.20,0.41,-21.69,-14.77,-8.2116814.00,-9.13,-3.58,-2.13,-0.57,0.20,0.41,-21.69,-14.77,-8.2116826.00,-8.84,-3.22,-3.29,-0.75,0.15,0.42,-21.69,-14.77,-8.2116838.00,-8.58,-1.64,-4.82,-0.65,-0.04,0.26,-21.69,-14.77,-8.2116849.00,-8.58,-1.64,-4.82,-0.65,-0.04,0.26,-21.69,-14.77,-8.2116863.00,-8.61,-2.79,-4.10,-0.31,-0.29,-0.10,-21.69,-14.77,-8.2116875.00,-8.61,-2.79,-4.10,-0.31,-0.29,-0.10,-21.69,-14.77,-8.2116885.00,-8.71,-2.60,-3.71,-0.09,-0.29,-0.18,-21.69,-14.77,-8.2116897.00,-8.89,-2.87,-2.85,0.09,-0.21,-0.16,-22.72,-14.60,-8.6816911.00,-8.89,-2.87,-2.85,0.09,-0.21,-0.16,-22.72,-14.60,-8.6816922.00,-8.89,-4.69,-2.20,0.14,-0.02,-0.05,-22.72,-14.60,-8.6816933.00,-8.89,-4.69,-2.20,0.14,-0.02,-0.05,-22.72,-14.60,-8.6816945.00,-9.16,-2.97,-2.62,-0.09,0.15,0.15,-22.72,-14.60,-8.6816958.00,-9.18,-3.22,-2.99,-0.21,0.14,0.12,-22.72,-14.60,-8.6816970.00,-9.18,-3.22,-2.99,-0.21,0.14,0.12,-22.72,-14.60,-8.6816982.00,-9.46,-1.49,-4.36,-0.24,0.03,0.09,-22.72,-14.60,-8.6816994.00,-9.46,-1.49,-4.36,-0.24,0.03,0.09,-22.72,-14.60,-8.6817007.00,-11.26,-1.07,-3.51,0.16,-0.31,-0.19,-22.72,-14.60,-8.6817019.00,-7.76,-4.23,-3.04,0.40,-0.30,-0.71,-22.72,-14.60,-8.6817031.00,-7.76,-4.23,-3.04,0.40,-0.30,-0.71,-22.72,-14.60,-8.6817044.00,-6.02,-4.66,-4.71,0.38,-0.34,-0.58,-21.89,-15.96,-8.3717056.00,-6.02,-4.66,-4.71,0.38,-0.34,-0.58,-21.89,-15.96,-8.3717068.00,-5.51,-5.17,-4.35,0.68,-0.53,-0.23,-21.89,-15.96,-8.3717080.00,-13.74,-2.07,-0.19,0.68,-0.60,0.24,-21.89,-15.96,-8.3717093.00,-13.74,-2.07,-0.19,0.68,-0.60,0.24,-21.89,-15.96,-8.3717106.00,-10.21,-1.76,0.53,0.12,-0.13,0.12,-21.89,-15.96,-8.3717118.00,-9.50,-2.89,-3.37,-0.19,0.12,0.02,-21.89,-15.96,-8.3717130.00,-9.50,-2.89,-3.37,-0.19,0.12,0.02,-21.89,-15.96,-8.3717142.00,-10.94,-2.77,-4.09,-0.13,0.03,0.01,-21.89,-15.96,-8.3717154.00,-10.94,-2.77,-4.09,-0.13,0.03,0.01,-21.89,-15.96,-8.3717166.00,-8.97,-3.06,-2.36,-0.05,0.07,-0.19,-24.79,-16.98,-7.7417178.00,-7.63,-4.63,-2.46,-0.14,0.12,-0.15,-24.79,-16.98,-7.7417191.00,-7.63,-4.63,-2.46,-0.14,0.12,-0.15,-24.79,-16.98,-7.7417202.00,-6.82,-4.37,-3.49,-0.26,0.06,0.15,-24.79,-16.98,-7.7417214.00,-6.82,-4.37,-3.49,-0.26,0.06,0.15,-24.79,-16.98,-7.7417227.00,-6.15,-5.13,-3.58,-0.10,-0.08,0.38,-24.79,-16.98,-7.7417240.00,-11.90,-2.85,-2.71,0.05,-0.25,0.72,-24.79,-16.98,-7.7417252.00,-11.90,-2.85,-2.71,0.05,-0.25,0.72,-24.79,-16.98,-7.7417263.00,-10.29,-2.16,-0.38,-0.05,-0.14,0.37,-24.79,-16.98,-7.7417275.00,-10.29,-2.16,-0.38,-0.05,-0.14,0.37,-24.79,-16.98,-7.7417289.00,-9.58,-2.81,-2.95,-0.37,0.07,0.09,-22.72,-15.96,-7.4317301.00,-9.15,-3.25,-3.32,-0.55,-0.12,-0.05,-22.72,-15.96,-7.4317312.00,-9.15,-3.25,-3.32,-0.55,-0.12,-0.05,-22.72,-15.96,-7.4317322.00,-9.00,-2.97,-3.56,-0.59,-0.25,-0.07,-22.72,-15.96,-7.4317336.00,-9.00,-2.97,-3.56,-0.59,-0.25,-0.07,-22.72,-15.96,-7.4317348.00,-8.98,-2.38,-4.15,-0.35,-0.16,-0.00,-22.72,-15.96,-7.4317359.00,-9.05,-3.78,-2.03,-0.05,-0.16,-0.00,-22.72,-15.96,-7.4317371.00,-9.05,-3.78,-2.03,-0.05,-0.16,-0.00,-22.72,-15.96,-7.4317385.00,-8.88,-3.43,-2.72,-0.10,0.02,0.14,-22.72,-15.96,-7.4317397.00,-8.88,-3.43,-2.72,-0.10,0.02,0.14,-22.72,-15.96,-7.4317409.00,-9.09,-2.79,-2.87,-0.17,0.12,0.23,-22.72,-15.62,-7.4317420.00,-9.14,-2.95,-2.71,-0.22,0.07,0.15,-22.72,-15.62,-7.4317433.00,-9.14,-2.95,-2.71,-0.22,0.07,0.15,-22.72,-15.62,-7.4317444.00,-9.10,-3.49,-2.55,-0.25,0.03,0.05,-22.72,-15.62,-7.4317455.00,-9.10,-3.49,-2.55,-0.25,0.03,0.05,-22.72,-15.62,-7.4317467.00,-9.37,-1.71,-3.60,-0.38,-0.01,0.06,-22.72,-15.62,-7.4317480.00,-9.20,-2.68,-2.22,-0.32,-0.20,-0.13,-22.72,-15.62,-7.4317491.00,-9.20,-2.68,-2.22,-0.32,-0.20,-0.13,-22.72,-15.62,-7.4317502.00,-8.99,-3.72,-1.85,-0.36,-0.25,-0.19,-22.72,-15.62,-7.4317514.00,-8.99,-3.72,-1.85,-0.36,-0.25,-0.19,-22.72,-15.62,-7.4317527.00,-8.75,-2.26,-5.24,-0.48,-0.05,-0.01,-22.72,-15.62,-7.4317538.00,-8.88,-3.43,-3.01,-0.16,-0.07,0.08,-23.55,-13.24,-9.3117549.00,-8.88,-3.43,-3.01,-0.16,-0.07,0.08,-23.55,-13.24,-9.3117560.00,-9.19,-3.02,-1.70,0.00,0.09,0.22,-23.55,-13.24,-9.3117566.00,-9.19,-3.02,-1.70,0.00,0.09,0.22,-23.55,-13.24,-9.3117643.00,-8.84,-3.44,-1.94,-0.08,0.05,-0.68,-23.55,-13.24,-9.3117722.00,-7.01,-4.53,-3.61,-0.10,-0.36,-0.35,-23.96,-13.92,-7.7417800.00,-9.16,-2.93,-2.37,0.05,-0.05,0.17,-23.13,-14.26,-7.7417891.00,-8.63,-3.36,-3.18,-0.01,0.07,0.09,-23.13,-14.26,-7.7417903.00,-8.96,-3.05,-2.96,-0.02,0.06,0.15,-24.17,-13.07,-7.9017915.00,-8.96,-3.05,-2.96,-0.02,0.06,0.15,-24.17,-13.07,-7.9017926.00,-9.77,-2.53,-2.37,-0.06,0.04,0.14,-24.17,-13.07,-7.9017940.00,-9.21,-2.83,-2.95,-0.13,0.08,0.03,-24.17,-13.07,-7.9017952.00,-9.21,-2.83,-2.95,-0.13,0.08,0.03,-24.17,-13.07,-7.9017963.00,-8.31,-3.22,-4.10,-0.13,0.07,-0.01,-24.17,-13.07,-7.9017974.00,-8.31,-3.22,-4.10,-0.13,0.07,-0.01,-24.17,-13.07,-7.9017988.00,-8.68,-3.13,-3.54,-0.03,-0.02,0.06,-24.17,-13.07,-7.9017999.00,-9.26,-2.72,-2.80,0.01,-0.06,0.10,-24.17,-13.07,-7.9018011.00,-9.26,-2.72,-2.80,0.01,-0.06,0.10,-24.17,-13.07,-7.9018023.00,-9.32,-2.96,-2.47,-0.03,-0.05,0.06,-24.17,-13.07,-7.9018036.00,-9.32,-2.96,-2.47,-0.03,-0.05,0.06,-24.17,-13.07,-7.9018048.00,-9.00,-2.93,-3.21,-0.11,-0.00,0.02,-24.17,-13.41,-8.2118059.00,-8.73,-3.14,-3.49,-0.13,-0.02,0.00,-24.17,-13.41,-8.2118070.00,-8.73,-3.14,-3.49,-0.13,-0.02,0.00,-24.17,-13.41,-8.2118084.00,-9.11,-2.75,-3.25,-0.11,-0.03,0.04,-24.17,-13.41,-8.2118095.00,-9.11,-2.75,-3.25,-0.11,-0.03,0.04,-24.17,-13.41,-8.2118106.00,-9.13,-2.80,-2.87,-0.10,0.00,0.03,-24.17,-13.41,-8.2118118.00,-9.15,-2.96,-2.66,-0.12,0.07,0.00,-24.17,-13.41,-8.2118132.00,-9.15,-2.96,-2.66,-0.12,0.07,0.00,-24.17,-13.41,-8.2118142.00,-9.06,-2.96,-2.73,-0.17,0.12,-0.01,-24.17,-13.41,-8.2118154.00,-9.06,-2.96,-2.73,-0.17,0.12,-0.01,-24.17,-13.41,-8.2118166.00,-8.77,-3.04,-2.79,-0.21,0.17,-0.01,-24.17,-14.43,-9.4618179.00,-8.65,-3.15,-2.61,-0.23,0.23,0.03,-24.17,-14.43,-9.4618191.00,-8.65,-3.15,-2.61,-0.23,0.23,0.03,-24.17,-14.43,-9.4618203.00,-8.94,-2.74,-4.12,-0.27,0.30,0.13,-24.17,-14.43,-9.4618216.00,-8.94,-2.74,-4.12,-0.27,0.30,0.13,-24.17,-14.43,-9.4618226.00,-8.89,-2.48,-4.80,-0.26,0.18,0.12,-24.17,-14.43,-9.4618238.00,-8.94,-2.71,-3.85,-0.16,0.03,0.05,-24.17,-14.43,-9.4618250.00,-8.94,-2.71,-3.85,-0.16,0.03,0.05,-24.17,-14.43,-9.4618263.00,-9.25,-2.33,-3.45,-0.09,0.02,0.03,-24.17,-14.43,-9.4618274.00,-9.25,-2.33,-3.45,-0.09,0.02,0.03,-24.17,-14.43,-9.4618285.00,-8.93,-2.94,-3.17,-0.06,0.04,-0.04,-24.58,-11.71,-9.4618297.00,-8.93,-2.94,-3.17,-0.06,0.04,-0.04,-24.58,-11.71,-9.4618310.00,-8.81,-2.84,-3.68,-0.09,0.07,-0.02,-24.58,-11.71,-9.4618322.00,-8.92,-2.70,-3.57,-0.07,0.04,-0.01,-24.58,-11.71,-9.4618334.00,-8.92,-2.70,-3.57,-0.07,0.04,-0.01,-24.58,-11.71,-9.4618346.00,-8.97,-2.61,-3.71,-0.07,0.02,-0.02,-24.58,-11.71,-9.4618359.00,-8.82,-2.76,-3.78,-0.05,0.01,-0.03,-24.58,-11.71,-9.4618371.00,-8.82,-2.76,-3.78,-0.05,0.01,-0.03,-24.58,-11.71,-9.4618383.00,-8.79,-2.90,-3.65,-0.02,0.00,-0.02,-24.58,-11.71,-9.4618394.00,-8.79,-2.90,-3.65,-0.02,0.00,-0.02,-24.58,-11.71,-9.4618408.00,-8.87,-2.76,-3.66,-0.01,-0.00,0.00,-22.10,-12.05,-9.4618419.00,-9.00,-2.77,-3.45,-0.00,-0.01,0.00,-22.10,-12.05,-9.4618429.00,-9.00,-2.77,-3.45,-0.00,-0.01,0.00,-22.10,-12.05,-9.4618441.00,-9.00,-2.64,-3.54,-0.02,0.02,-0.00,-22.10,-12.05,-9.4618455.00,-9.00,-2.64,-3.54,-0.02,0.02,-0.00,-22.10,-12.05,-9.4618466.00,-8.63,-2.78,-4.00,-0.03,0.01,-0.03,-22.10,-12.05,-9.4618477.00,-8.63,-2.78,-4.00,-0.03,0.01,-0.03,-22.10,-12.05,-9.4618489.00,-8.86,-2.74,-3.74,-0.02,-0.06,-0.01,-22.10,-12.05,-9.4618502.00,-8.99,-2.72,-3.34,-0.01,-0.07,-0.01,-22.10,-12.05,-9.4618513.00,-8.99,-2.72,-3.34,-0.01,-0.07,-0.01,-22.10,-12.05,-9.4618524.00,-8.93,-2.78,-3.44,-0.02,-0.03,-0.02,-22.72,-12.90,-11.5018536.00,-8.93,-2.78,-3.44,-0.02,-0.03,-0.02,-22.72,-12.90,-11.5018548.00,-8.77,-2.90,-3.68,-0.03,-0.02,-0.03,-22.72,-12.90,-11.5018560.00,-8.87,-2.73,-3.76,-0.02,-0.04,-0.02,-22.72,-12.90,-11.5018572.00,-8.87,-2.73,-3.76,-0.02,-0.04,-0.02,-22.72,-12.90,-11.5018584.00,-8.94,-2.75,-3.35,-0.02,-0.04,-0.04,-22.72,-12.90,-11.5018597.00,-8.94,-2.75,-3.35,-0.02,-0.04,-0.04,-22.72,-12.90,-11.5018608.00,-8.83,-2.77,-3.36,-0.04,-0.01,-0.04,-22.72,-12.90,-11.5018620.00,-8.84,-2.89,-3.52,-0.05,0.04,-0.02,-22.72,-12.90,-11.5018632.00,-8.84,-2.89,-3.52,-0.05,0.04,-0.02,-22.72,-12.90,-11.5018645.00,-9.00,-2.82,-3.27,-0.04,0.10,-0.01,-22.72,-12.90,-11.5018655.00,-9.00,-2.82,-3.27,-0.04,0.10,-0.01,-22.72,-12.90,-11.5018667.00,-9.32,-2.61,-2.55,-0.05,0.21,-0.03,-24.17,-12.05,-9.7818679.00,-9.52,-2.65,-1.84,-0.05,0.46,-0.10,-24.17,-12.05,-9.7818692.00,-9.52,-2.65,-1.84,-0.05,0.46,-0.10,-24.17,-12.05,-9.7818703.00,-9.61,-2.78,-1.53,0.01,0.88,-0.17,-24.17,-12.05,-9.7818715.00,-9.61,-2.78,-1.53,0.01,0.88,-0.17,-24.17,-12.05,-9.7818727.00,-7.76,-3.69,-3.37,0.17,1.30,-0.23,-24.17,-12.05,-9.7818739.00,-6.44,-3.32,-5.64,0.50,1.27,-0.02,-24.17,-12.05,-9.7818751.00,-6.44,-3.32,-5.64,0.50,1.27,-0.02,-24.17,-12.05,-9.7818763.00,-7.28,-3.52,-7.38,1.11,1.09,0.24,-24.17,-12.05,-9.7818774.00,-7.28,-3.52,-7.38,1.11,1.09,0.24,-24.17,-12.05,-9.7818787.00,-9.65,-0.94,-6.06,1.77,0.61,0.40,-16.94,-13.24,-11.5018799.00,-10.16,-3.09,-4.37,1.62,0.06,0.14,-16.94,-13.24,-11.5018811.00,-10.16,-3.09,-4.37,1.62,0.06,0.14,-16.94,-13.24,-11.5018824.00,-7.93,-3.47,-6.42,1.00,0.12,0.14,-16.94,-13.24,-11.5018836.00,-7.93,-3.47,-6.42,1.00,0.12,0.14,-16.94,-13.24,-11.5018847.00,-7.55,-1.90,-6.70,0.93,-0.04,0.09,-16.94,-13.24,-11.5018858.00,-8.16,-4.05,-5.32,1.07,-0.22,-0.24,-16.94,-13.24,-11.5018872.00,-8.16,-4.05,-5.32,1.07,-0.22,-0.24,-16.94,-13.24,-11.5018884.00,-7.53,-4.24,-4.10,0.41,-0.60,-0.26,-16.94,-13.24,-11.5018896.00,-7.53,-4.24,-4.10,0.41,-0.60,-0.26,-16.94,-13.24,-11.5018907.00,-8.10,-3.66,-5.08,-0.21,-0.78,-0.20,-19.83,-18.34,-10.5618920.00,-9.17,-3.03,-3.90,-0.36,-1.01,-0.22,-19.83,-18.34,-10.5618932.00,-9.17,-3.03,-3.90,-0.36,-1.01,-0.22,-19.83,-18.34,-10.5618943.00,-9.35,-3.59,-2.42,-0.23,-0.98,-0.30,-19.83,-18.34,-10.5618954.00,-9.35,-3.59,-2.42,-0.23,-0.98,-0.30,-19.83,-18.34,-10.5618967.00,-8.29,-4.07,-2.02,-0.37,-0.96,-0.24,-19.83,-18.34,-10.5618979.00,-10.14,-2.90,-2.00,-0.51,-0.92,-0.14,-19.83,-18.34,-10.5618991.00,-10.14,-2.90,-2.00,-0.51,-0.92,-0.14,-19.83,-18.34,-10.5619002.00,-8.97,-3.39,-3.14,-0.29,-0.47,-0.37,-19.83,-18.34,-10.5619016.00,-8.97,-3.39,-3.14,-0.29,-0.47,-0.37,-19.83,-18.34,-10.5619028.00,-7.05,-4.97,-3.40,-0.15,-0.39,-0.43,-21.69,-16.47,-8.2119038.00,-7.85,-4.63,-4.36,-0.20,-0.61,-0.15,-21.69,-16.47,-8.2119050.00,-7.85,-4.63,-4.36,-0.20,-0.61,-0.15,-21.69,-16.47,-8.2119064.00,-8.86,-3.27,-4.06,-0.19,-0.80,-0.03,-21.69,-16.47,-8.2119076.00,-8.86,-3.27,-4.06,-0.19,-0.80,-0.03,-21.69,-16.47,-8.2119088.00,-8.58,-3.83,-2.08,-0.02,-0.80,-0.16,-21.69,-16.47,-8.2119100.00,-8.48,-4.04,-1.88,-0.06,-0.65,-0.15,-21.69,-16.47,-8.2119113.00,-8.48,-4.04,-1.88,-0.06,-0.65,-0.15,-21.69,-16.47,-8.2119125.00,-8.71,-3.23,-1.52,-0.06,-0.45,-0.05,-21.69,-16.47,-8.2119137.00,-8.71,-3.23,-1.52,-0.06,-0.45,-0.05,-21.69,-16.47,-8.2119148.00,-8.41,-4.47,-1.58,0.07,-0.07,-0.07,-21.69,-16.47,-8.2119162.00,-8.38,-4.22,-1.99,0.02,0.25,0.05,-21.89,-17.66,-6.8119173.00,-8.38,-4.22,-1.99,0.02,0.25,0.05,-21.89,-17.66,-6.8119185.00,-7.82,-4.21,-2.75,-0.01,0.43,0.18,-21.89,-17.66,-6.8119197.00,-7.82,-4.21,-2.75,-0.01,0.43,0.18,-21.89,-17.66,-6.8119210.00,-7.82,-4.55,-2.99,0.08,0.52,0.35,-21.89,-17.66,-6.8119222.00,-10.90,-2.80,-4.55,0.08,0.49,0.51,-21.89,-17.66,-6.8119234.00,-10.90,-2.80,-4.55,0.08,0.49,0.51,-21.89,-17.66,-6.8119246.00,-9.65,-2.47,-2.76,0.02,0.33,0.21,-21.89,-17.66,-6.8119259.00,-8.62,-4.09,-2.72,-0.13,0.29,0.02,-21.89,-17.66,-6.8119270.00,-8.62,-4.09,-2.72,-0.13,0.29,0.02,-21.89,-17.66,-6.8119282.00,-8.39,-3.32,-4.41,-0.29,0.25,0.14,-21.48,-15.96,-8.6819294.00,-8.39,-3.32,-4.41,-0.29,0.25,0.14,-21.48,-15.96,-8.6819306.00,-8.75,-3.38,-3.72,-0.16,0.05,0.10,-21.48,-15.96,-8.6819318.00,-9.08,-3.37,-3.04,-0.10,-0.01,0.04,-21.48,-15.96,-8.6819330.00,-9.08,-3.37,-3.04,-0.10,-0.01,0.04,-21.48,-15.96,-8.6819344.00,-8.38,-3.56,-3.42,-0.12,0.02,-0.00,-21.48,-15.96,-8.6819355.00,-8.38,-3.56,-3.42,-0.12,0.02,-0.00,-21.48,-15.96,-8.6819366.00,-8.19,-3.91,-3.71,-0.10,-0.02,0.05,-21.48,-15.96,-8.6819378.00,-8.19,-3.91,-3.71,-0.10,-0.02,0.05,-21.48,-15.96,-8.6819391.00,-8.47,-3.52,-3.84,-0.06,-0.04,0.15,-21.48,-15.96,-8.6819403.00,-9.11,-3.01,-3.39,-0.02,-0.11,0.18,-20.86,-15.79,-9.1519415.00,-9.11,-3.01,-3.39,-0.02,-0.11,0.18,-20.86,-15.79,-9.1519427.00,-8.51,-3.56,-3.31,-0.02,-0.15,0.11,-20.86,-15.79,-9.1519440.00,-7.57,-4.07,-4.22,-0.04,-0.23,0.17,-20.86,-15.79,-9.1519452.00,-7.57,-4.07,-4.22,-0.04,-0.23,0.17,-20.86,-15.79,-9.1519463.00,-10.13,-3.14,-3.26,0.04,-0.37,0.33,-20.86,-15.79,-9.1519474.00,-10.13,-3.14,-3.26,0.04,-0.37,0.33,-20.86,-15.79,-9.1519488.00,-9.63,-3.10,-1.80,-0.03,-0.25,0.20,-20.86,-15.79,-9.1519500.00,-8.97,-3.19,-2.91,-0.23,-0.07,0.10,-20.86,-15.79,-9.1519511.00,-8.97,-3.19,-2.91,-0.23,-0.07,0.10,-20.86,-15.79,-9.1519523.00,-8.78,-3.21,-3.90,-0.31,-0.05,0.09,-22.31,-15.96,-8.3719536.00,-8.78,-3.21,-3.90,-0.31,-0.05,0.09,-22.31,-15.96,-8.3719548.00,-8.95,-2.85,-3.06,-0.25,-0.13,0.10,-22.31,-15.96,-8.3719560.00,-8.95,-3.16,-2.49,-0.17,-0.08,0.05,-22.31,-15.96,-8.3719571.00,-8.95,-3.16,-2.49,-0.17,-0.08,0.05,-22.31,-15.96,-8.3719584.00,-9.07,-3.38,-3.19,-0.21,0.02,0.04,-22.31,-15.96,-8.3719596.00,-9.07,-3.38,-3.19,-0.21,0.02,0.04,-22.31,-15.96,-8.3719608.00,-9.11,-1.95,-3.53,-0.24,-0.17,-0.06,-22.31,-15.96,-8.3719619.00,-8.80,-3.99,-2.50,-0.18,-0.36,-0.25,-22.31,-15.96,-8.3719632.00,-8.80,-3.99,-2.50,-0.18,-0.36,-0.25,-22.31,-15.96,-8.3719644.00,-8.50,-3.77,-2.95,-0.31,-0.24,-0.12,-22.31,-15.96,-8.3719656.00,-8.50,-3.77,-2.95,-0.31,-0.24,-0.12,-22.31,-15.96,-8.3719668.00,-8.70,-2.27,-5.35,-0.19,-0.08,-0.02,-22.10,-15.79,-8.5319682.00,-9.04,-3.80,-2.74,0.17,-0.18,-0.04,-22.10,-15.79,-8.5319694.00,-9.04,-3.80,-2.74,0.17,-0.18,-0.04,-22.10,-15.79,-8.5319706.00,-8.56,-4.02,-2.43,0.07,0.05,0.24,-22.10,-15.79,-8.5319717.00,-8.56,-4.02,-2.43,0.07,0.05,0.24,-22.10,-15.79,-8.5319731.00,-9.13,-2.34,-3.46,-0.10,0.17,0.34,-22.10,-15.79,-8.5319743.00,-8.92,-3.75,-2.14,-0.06,-0.01,0.10,-22.10,-15.79,-8.5319753.00,-8.92,-3.75,-2.14,-0.06,-0.01,0.10,-22.10,-15.79,-8.5319765.00,-9.01,-2.95,-3.46,-0.22,0.02,0.10,-22.10,-15.79,-8.5319779.00,-9.24,-2.08,-3.71,-0.29,-0.08,0.05,-22.31,-14.26,-8.0619789.00,-9.24,-2.08,-3.71,-0.29,-0.08,0.05,-22.31,-14.26,-8.0619801.00,-9.00,-2.21,-2.94,-0.26,-0.36,-0.18,-22.31,-14.26,-8.0619813.00,-9.00,-2.21,-2.94,-0.26,-0.36,-0.18,-22.31,-14.26,-8.0619827.00,-8.70,-3.55,-2.25,-0.23,-0.41,-0.24,-22.31,-14.26,-8.0619839.00,-8.81,-2.52,-4.33,-0.29,-0.14,-0.04,-22.31,-14.26,-8.0619850.00,-8.81,-2.52,-4.33,-0.29,-0.14,-0.04,-22.31,-14.26,-8.0619861.00,-9.07,-3.55,-3.24,-0.04,-0.14,-0.00,-22.31,-14.26,-8.0619874.00,-9.07,-3.55,-3.24,-0.04,-0.14,-0.00,-22.31,-14.26,-8.0619886.00,-8.90,-2.61,-3.22,0.01,-0.03,0.22,-22.31,-14.26,-8.0619898.00,-8.90,-2.61,-3.22,0.01,-0.03,0.22,-22.31,-14.26,-8.0619910.00,-9.05,-2.95,-3.16,0.04,0.09,0.29,-23.55,-14.60,-8.6819923.00,-8.98,-3.23,-2.27,0.02,-0.02,0.13,-23.55,-14.60,-8.6819935.00,-8.98,-3.23,-2.27,0.02,-0.02,0.13,-23.55,-14.60,-8.6819947.00,-9.10,-3.20,-3.00,-0.08,-0.02,0.05,-23.55,-14.60,-8.6819958.00,-9.10,-3.20,-3.00,-0.08,-0.02,0.05,-23.55,-14.60,-8.6819962.00,-9.63,-1.92,-3.56,-0.21,-0.15,0.01,-23.55,-14.60,-8.6820041.00,-9.03,-4.01,-1.12,0.18,-0.12,-0.02,-24.17,-14.09,-7.9020119.00,-10.06,-2.37,-0.20,-0.19,-0.37,-0.31,-24.17,-14.09,-7.9020197.00,-5.20,-6.06,-5.46,-0.13,-0.14,-0.07,-26.03,-14.26,-9.0020288.00,-9.21,-2.97,-3.76,-0.16,0.33,0.20,-25.41,-13.75,-7.9020300.00,-9.56,-2.42,-1.61,-0.21,0.20,0.26,-25.41,-13.75,-7.9020312.00,-9.56,-2.42,-1.61,-0.21,0.20,0.26,-25.41,-13.75,-7.9020324.00,-9.18,-3.50,-2.57,-0.35,0.18,0.20,-25.41,-13.75,-7.9020337.00,-9.18,-3.50,-2.57,-0.35,0.18,0.20,-25.41,-13.75,-7.9020349.00,-9.41,-2.24,-3.48,-0.51,0.07,0.26,-25.41,-13.75,-7.9020361.00,-9.29,-1.23,-3.10,-0.49,-0.23,0.07,-25.41,-13.75,-7.9020374.00,-9.29,-1.23,-3.10,-0.49,-0.23,0.07,-25.41,-13.75,-7.9020386.00,-8.76,-3.11,-3.04,-0.42,-0.28,-0.09,-25.41,-13.75,-7.9020398.00,-8.76,-3.11,-3.04,-0.42,-0.28,-0.09,-25.41,-13.75,-7.9020409.00,-8.82,-2.17,-4.35,-0.31,-0.11,0.03,-23.75,-11.71,-8.5320422.00,-8.89,-3.60,-2.38,-0.05,-0.09,0.04,-23.75,-11.71,-8.5320433.00,-8.89,-3.60,-2.38,-0.05,-0.09,0.04,-23.75,-11.71,-8.5320444.00,-9.04,-2.36,-3.33,-0.05,0.08,0.22,-23.75,-11.71,-8.5320456.00,-9.04,-2.36,-3.33,-0.05,0.08,0.22,-23.75,-11.71,-8.5320470.00,-9.19,-2.59,-3.00,-0.03,0.06,0.17,-23.75,-11.71,-8.5320482.00,-9.17,-2.81,-2.72,-0.06,-0.04,0.07,-23.75,-11.71,-8.5320493.00,-9.17,-2.81,-2.72,-0.06,-0.04,0.07,-23.75,-11.71,-8.5320505.00,-9.48,-2.02,-3.19,-0.20,-0.08,0.04,-23.75,-11.71,-8.5320518.00,-9.48,-2.02,-3.19,-0.20,-0.08,0.04,-23.75,-11.71,-8.5320528.00,-9.49,-2.32,-2.01,-0.30,-0.24,-0.09,-23.34,-11.03,-7.5920539.00,-9.01,-2.70,-2.27,-0.39,-0.30,-0.19,-23.34,-11.03,-7.5920551.00,-9.01,-2.70,-2.27,-0.39,-0.30,-0.19,-23.34,-11.03,-7.5920566.00,-8.63,-2.90,-4.03,-0.44,-0.15,-0.10,-23.34,-11.03,-7.5920578.00,-8.63,-2.90,-4.03,-0.44,-0.15,-0.10,-23.34,-11.03,-7.5920590.00,-9.04,-2.43,-3.42,-0.24,-0.03,0.06,-23.34,-11.03,-7.5920601.00,-9.34,-2.64,-3.24,0.01,0.08,0.11,-23.34,-11.03,-7.5920615.00,-9.34,-2.64,-3.24,0.01,0.08,0.11,-23.34,-11.03,-7.5920627.00,-9.35,-1.76,-4.71,0.12,0.03,0.11,-23.34,-11.03,-7.5920638.00,-9.35,-1.76,-4.71,0.12,0.03,0.11,-23.34,-11.03,-7.5920650.00,-10.45,-1.75,-1.47,0.07,-0.24,-0.06,-23.34,-11.03,-7.5920663.00,-8.78,-3.00,-1.45,-0.22,-0.23,-0.29,-24.58,-10.01,-9.1520674.00,-8.78,-3.00,-1.45,-0.22,-0.23,-0.29,-24.58,-10.01,-9.1520686.00,-8.10,-3.34,-3.16,-0.41,-0.26,-0.29,-24.58,-10.01,-9.1520698.00,-8.10,-3.34,-3.16,-0.41,-0.26,-0.29,-24.58,-10.01,-9.1520711.00,-5.99,-4.60,-5.05,-0.31,-0.30,-0.17,-24.58,-10.01,-9.1520722.00,-12.29,-1.19,-3.74,-0.00,-0.33,0.25,-24.58,-10.01,-9.1520734.00,-12.29,-1.19,-3.74,-0.00,-0.33,0.25,-24.58,-10.01,-9.1520746.00,-10.29,-0.88,-0.38,-0.02,-0.18,0.19,-24.58,-10.01,-9.1520759.00,-9.47,-3.05,-2.67,-0.21,0.06,0.18,-24.58,-10.01,-9.1520771.00,-9.47,-3.05,-2.67,-0.21,0.06,0.18,-24.58,-10.01,-9.1520783.00,-9.26,-2.24,-3.87,-0.43,0.18,0.52,-27.06,-12.05,-8.8420794.00,-9.26,-2.24,-3.87,-0.43,0.18,0.52,-27.06,-12.05,-8.8420808.00,-9.59,-2.86,-1.42,-0.55,0.23,0.76,-27.06,-12.05,-8.8420819.00,-9.18,-0.17,-4.79,-0.61,0.42,0.89,-27.06,-12.05,-8.8420831.00,-9.18,-0.17,-4.79,-0.61,0.42,0.89,-27.06,-12.05,-8.8420843.00,-8.95,-1.55,-3.73,-0.02,0.28,0.57,-27.06,-12.05,-8.8420856.00,-8.95,-1.55,-3.73,-0.02,0.28,0.57,-27.06,-12.05,-8.8420868.00,-9.55,-0.33,-4.17,0.38,0.14,0.24,-27.06,-12.05,-8.8420879.00,-9.64,-0.93,-2.84,0.65,-0.12,-0.33,-27.06,-12.05,-8.8420891.00,-9.64,-0.93,-2.84,0.65,-0.12,-0.33,-27.06,-12.05,-8.8420904.00,-9.76,-2.88,-1.05,0.60,-0.22,-0.65,-26.23,-9.67,-9.1520915.00,-9.76,-2.88,-1.05,0.60,-0.22,-0.65,-26.23,-9.67,-9.1520927.00,-9.57,-2.70,-2.04,-0.01,-0.27,-0.53,-26.23,-9.67,-9.1520939.00,-9.56,-2.93,-2.05,-0.60,-0.27,-0.32,-26.23,-9.67,-9.1520952.00,-9.56,-2.93,-2.05,-0.60,-0.27,-0.32,-26.23,-9.67,-9.1520964.00,-9.33,-2.83,-2.55,-1.14,-0.36,-0.19,-26.23,-9.67,-9.1520976.00,-9.33,-2.83,-2.55,-1.14,-0.36,-0.19,-26.23,-9.67,-9.1520987.00,-8.85,-1.08,-3.62,-1.23,-0.42,-0.15,-26.23,-9.67,-9.1521000.00,-8.61,-1.81,-4.07,-0.80,-0.43,-0.32,-26.23,-9.67,-9.1521012.00,-8.61,-1.81,-4.07,-0.80,-0.43,-0.32,-26.23,-9.67,-9.1521023.00,-8.80,-1.70,-4.20,-0.23,-0.33,-0.44,-25.20,-9.16,-9.3121035.00,-8.80,-1.70,-4.20,-0.23,-0.33,-0.44,-25.20,-9.16,-9.3121048.00,-8.99,-2.71,-3.49,0.14,-0.17,-0.38,-25.20,-9.16,-9.3121060.00,-8.92,-2.32,-2.93,0.26,-0.00,-0.14,-25.20,-9.16,-9.3121072.00,-8.92,-2.32,-2.93,0.26,-0.00,-0.14,-25.20,-9.16,-9.3121083.00,-9.17,-3.34,-2.75,0.23,0.21,0.05,-25.20,-9.16,-9.3121096.00,-9.17,-3.34,-2.75,0.23,0.21,0.05,-25.20,-9.16,-9.3121108.00,-9.15,-3.55,-1.00,-0.10,0.35,0.28,-25.20,-9.16,-9.3121119.00,-9.15,-3.55,-1.00,-0.10,0.35,0.28,-25.20,-9.16,-9.3121130.00,-9.58,-2.21,-1.79,-0.53,0.49,0.49,-25.20,-9.16,-9.3121143.00,-9.72,-0.88,-3.61,-0.76,0.41,0.58,-25.20,-9.16,-9.3121155.00,-9.72,-0.88,-3.61,-0.76,0.41,0.58,-25.20,-9.16,-9.3121167.00,-9.44,-2.19,-3.56,-0.76,0.16,0.48,-25.41,-7.97,-9.1521179.00,-9.76,-0.51,-3.23,-0.79,-0.09,0.31,-25.41,-7.97,-9.1521193.00,-9.76,-0.51,-3.23,-0.79,-0.09,0.31,-25.41,-7.97,-9.1521205.00,-9.35,-0.55,-3.05,-0.82,-0.28,-0.06,-25.41,-7.97,-9.1521216.00,-9.35,-0.55,-3.05,-0.82,-0.28,-0.06,-25.41,-7.97,-9.1521228.00,-8.78,-1.73,-4.55,-0.75,-0.24,-0.20,-25.41,-7.97,-9.1521242.00,-8.52,-2.29,-5.23,-0.43,-0.11,-0.08,-25.41,-7.97,-9.1521253.00,-8.52,-2.29,-5.23,-0.43,-0.11,-0.08,-25.41,-7.97,-9.1521264.00,-8.67,-2.83,-2.21,-0.10,-0.05,0.06,-25.41,-7.97,-9.1521276.00,-8.67,-2.83,-2.21,-0.10,-0.05,0.06,-25.41,-7.97,-9.1521289.00,-9.67,-1.10,-2.12,0.01,0.28,0.29,-26.85,-5.42,-8.6821300.00,-9.52,-1.24,-3.25,-0.02,0.47,0.24,-26.85,-5.42,-8.6821312.00,-9.52,-1.24,-3.25,-0.02,0.47,0.24,-26.85,-5.42,-8.6821324.00,-12.66,0.78,-2.19,0.02,0.45,0.03,-26.85,-5.42,-8.6821337.00,-12.66,0.78,-2.19,0.02,0.45,0.03,-26.85,-5.42,-8.6821349.00,-11.13,-0.57,-1.27,0.09,0.73,-0.55,-26.85,-5.42,-8.6821361.00,-7.53,-0.49,-4.31,0.21,0.69,-0.69,-26.85,-5.42,-8.6821373.00,-7.53,-0.49,-4.31,0.21,0.69,-0.69,-26.85,-5.42,-8.6821386.00,-10.74,0.16,-0.74,0.57,-0.19,-0.62,-26.85,-5.42,-8.6821396.00,-10.74,0.16,-0.74,0.57,-0.19,-0.62,-26.85,-5.42,-8.6821408.00,-7.44,-1.04,-6.51,1.13,-0.18,-0.77,-23.75,-6.95,-10.0921420.00,-5.76,-3.11,-8.13,2.15,-0.31,-0.77,-23.75,-6.95,-10.0921433.00,-5.76,-3.11,-8.13,2.15,-0.31,-0.77,-23.75,-6.95,-10.0921444.00,-3.96,-4.89,-5.42,2.85,-0.24,-0.52,-23.75,-6.95,-10.0921456.00,-3.96,-4.89,-5.42,2.85,-0.24,-0.52,-23.75,-6.95,-10.0921468.00,-7.18,-4.59,-2.26,2.85,0.03,-0.04,-23.75,-6.95,-10.0921482.00,-11.58,-4.12,-2.89,2.27,0.30,0.09,-23.75,-6.95,-10.0921494.00,-11.58,-4.12,-2.89,2.27,0.30,0.09,-23.75,-6.95,-10.0921506.00,-11.73,-4.48,-1.61,1.39,0.24,-0.15,-23.75,-6.95,-10.0921518.00,-11.73,-4.48,-1.61,1.39,0.24,-0.15,-23.75,-6.95,-10.0921531.00,-8.00,-3.80,-2.60,0.58,0.26,-0.28,-23.55,-15.62,-9.6221541.00,-9.32,-3.61,-2.02,0.07,0.02,-0.11,-23.55,-15.62,-9.6221553.00,-9.32,-3.61,-2.02,0.07,0.02,-0.11,-23.55,-15.62,-9.6221565.00,-10.02,-2.89,-2.61,-0.43,-0.04,0.01,-23.55,-15.62,-9.6221578.00,-10.02,-2.89,-2.61,-0.43,-0.04,0.01,-23.55,-15.62,-9.6221588.00,-9.12,-2.40,-3.36,-0.58,0.00,-0.00,-23.55,-15.62,-9.6221600.00,-8.68,-3.34,-3.66,-0.43,-0.02,-0.05,-23.55,-15.62,-9.6221612.00,-8.68,-3.34,-3.66,-0.43,-0.02,-0.05,-23.55,-15.62,-9.6221626.00,-7.59,-3.68,-4.55,-0.30,0.01,0.02,-23.55,-15.62,-9.6221638.00,-7.59,-3.68,-4.55,-0.30,0.01,0.02,-23.55,-15.62,-9.6221650.00,-8.32,-3.71,-3.62,-0.08,-0.12,0.10,-23.55,-15.62,-9.6221662.00,-9.26,-3.10,-2.41,-0.08,-0.24,0.10,-22.93,-14.43,-9.4621675.00,-9.26,-3.10,-2.41,-0.08,-0.24,0.10,-22.93,-14.43,-9.4621687.00,-9.52,-3.29,-2.18,-0.25,-0.21,0.00,-22.93,-14.43,-9.4621698.00,-9.52,-3.29,-2.18,-0.25,-0.21,0.00,-22.93,-14.43,-9.4621708.00,-8.74,-2.69,-4.40,-0.38,-0.07,-0.02,-22.93,-14.43,-9.4621713.00,-8.74,-2.69,-4.40,-0.38,-0.07,-0.02,-22.93,-14.43,-9.4621791.00,-8.94,-4.56,-2.15,0.17,0.27,0.08,-23.13,-13.92,-8.0621870.00,-9.02,-1.93,-2.92,-0.71,-0.23,0.04,-23.13,-13.92,-8.0621949.00,-8.82,-2.56,-3.26,0.35,-0.22,-0.25,-22.93,-12.73,-9.4622040.00,-9.04,-1.91,-4.27,-0.88,0.20,0.61,-23.34,-12.05,-8.5322051.00,-9.04,-1.91,-4.27,-0.88,0.20,0.61,-23.34,-12.05,-8.5322063.00,-9.06,-0.81,-4.66,-0.70,-0.07,0.36,-23.34,-12.05,-8.5322076.00,-9.06,-0.81,-4.66,-0.70,-0.07,0.36,-23.34,-12.05,-8.5322087.00,-8.83,-1.74,-4.62,-0.34,-0.27,-0.05,-23.34,-12.05,-8.5322099.00,-8.83,-1.74,-4.62,-0.34,-0.27,-0.05,-23.34,-12.05,-8.5322111.00,-8.44,-1.61,-4.85,0.07,-0.34,-0.33,-23.34,-12.05,-8.5322124.00,-8.74,-3.50,-3.03,0.39,-0.31,-0.36,-23.34,-12.05,-8.5322136.00,-8.74,-3.50,-3.03,0.39,-0.31,-0.36,-23.34,-12.05,-8.5322147.00,-8.82,-3.38,-3.14,0.33,-0.11,-0.14,-24.79,-11.20,-9.0022158.00,-8.82,-3.38,-3.14,0.33,-0.11,-0.14,-24.79,-11.20,-9.0022172.00,-8.89,-3.85,-2.31,0.20,0.18,0.24,-24.79,-11.20,-9.0022184.00,-9.32,-3.28,-1.58,-0.09,0.22,0.30,-24.79,-11.20,-9.0022194.00,-9.32,-3.28,-1.58,-0.09,0.22,0.30,-24.79,-11.20,-9.0022206.00,-9.47,-3.13,-2.76,-0.32,0.20,0.22,-24.79,-11.20,-9.0022220.00,-8.97,-0.76,-5.38,-0.65,0.01,0.18,-24.79,-11.20,-9.0022230.00,-8.97,-0.76,-5.38,-0.65,0.01,0.18,-24.79,-11.20,-9.0022242.00,-8.70,-1.82,-4.99,-0.47,-0.33,-0.10,-24.79,-11.20,-9.0022254.00,-8.70,-1.82,-4.99,-0.47,-0.33,-0.10,-24.79,-11.20,-9.0022268.00,-8.51,-3.32,-4.12,-0.16,-0.34,-0.10,-24.79,-11.20,-9.0022280.00,-8.87,-2.40,-3.71,-0.00,-0.31,0.07,-23.96,-10.18,-9.0022291.00,-8.87,-2.40,-3.71,-0.00,-0.31,0.07,-23.96,-10.18,-9.0022302.00,-8.83,-2.53,-3.20,0.11,-0.26,0.10,-23.96,-10.18,-9.0022316.00,-8.83,-2.53,-3.20,0.11,-0.26,0.10,-23.96,-10.18,-9.0022328.00,-8.71,-2.70,-3.44,0.23,-0.14,0.04,-23.96,-10.18,-9.0022339.00,-8.71,-2.70,-3.44,0.23,-0.14,0.04,-23.96,-10.18,-9.0022351.00,-8.51,-2.69,-2.84,0.44,0.05,0.04,-23.96,-10.18,-9.0022364.00,-9.64,-1.33,-3.43,0.55,0.28,0.08,-23.96,-10.18,-9.0022375.00,-9.64,-1.33,-3.43,0.55,0.28,0.08,-23.96,-10.18,-9.0022387.00,-9.46,-2.71,-1.69,0.54,0.18,-0.11,-23.96,-10.18,-9.0022399.00,-9.46,-2.71,-1.69,0.54,0.18,-0.11,-23.96,-10.18,-9.0022412.00,-11.12,-1.50,-3.57,0.46,0.22,-0.21,-22.72,-11.88,-8.3722424.00,-9.87,-2.91,-2.87,0.50,0.17,-0.52,-22.72,-11.88,-8.3722435.00,-9.87,-2.91,-2.87,0.50,0.17,-0.52,-22.72,-11.88,-8.3722446.00,-10.12,-0.16,-0.04,0.36,-0.29,-0.21,-22.72,-11.88,-8.3722460.00,-10.39,-1.97,-0.56,0.29,-0.54,-0.14,-22.72,-11.88,-8.3722472.00,-10.39,-1.97,-0.56,0.29,-0.54,-0.14,-22.72,-11.88,-8.3722483.00,-8.78,-2.31,-3.34,0.00,-0.34,-0.18,-22.72,-11.88,-8.3722495.00,-8.78,-2.31,-3.34,0.00,-0.34,-0.18,-22.72,-11.88,-8.3722508.00,-7.45,-3.41,-5.32,0.18,-0.03,-0.21,-22.72,-11.88,-8.3722519.00,-7.45,-3.41,-5.32,0.18,-0.03,-0.21,-22.72,-11.88,-8.3722530.00,-6.48,-4.74,-6.12,0.58,0.22,-0.28,-22.72,-13.92,-10.2522542.00,-7.22,-5.41,-6.20,0.87,0.34,-0.29,-22.72,-13.92,-10.2522556.00,-7.22,-5.41,-6.20,0.87,0.34,-0.29,-22.72,-13.92,-10.2522568.00,-8.12,-4.56,-4.17,0.90,0.22,-0.22,-22.72,-13.92,-10.2522580.00,-9.68,-3.38,-1.13,0.71,0.05,-0.16,-22.72,-13.92,-10.2522591.00,-9.68,-3.38,-1.13,0.71,0.05,-0.16,-22.72,-13.92,-10.2522604.00,-9.98,-3.46,-1.04,0.18,0.06,-0.19,-22.72,-13.92,-10.2522616.00,-9.98,-3.46,-1.04,0.18,0.06,-0.19,-22.72,-13.92,-10.2522628.00,-9.56,-2.68,-2.72,-0.28,0.08,-0.15,-22.72,-13.92,-10.2522640.00,-9.56,-2.68,-2.72,-0.28,0.08,-0.15,-22.72,-13.92,-10.2522653.00,-8.89,-2.92,-3.95,-0.27,0.05,-0.20,-22.10,-15.79,-8.8422665.00,-8.30,-3.83,-3.93,-0.09,0.02,-0.21,-22.10,-15.79,-8.8422677.00,-8.30,-3.83,-3.93,-0.09,0.02,-0.21,-22.10,-15.79,-8.8422689.00,-8.01,-4.14,-3.78,-0.02,0.00,-0.11,-22.10,-15.79,-8.8422694.00,-8.01,-4.14,-3.78,-0.02,0.00,-0.11,-22.10,-15.79,-8.8422771.00,-10.07,-2.64,-2.80,-0.34,-0.31,0.21,-22.10,-15.79,-8.8422851.00,-9.07,-3.90,-2.15,0.53,-0.04,-0.11,-24.37,-15.62,-9.9322928.00,-10.30,-2.63,-2.85,-0.35,-0.08,0.08,-25.41,-15.11,-7.9023020.00,-9.13,-3.06,-2.03,0.06,-0.04,0.10,-23.75,-15.45,-8.2123032.00,-9.13,-3.06,-2.03,0.06,-0.04,0.10,-23.75,-15.45,-8.2123044.00,-8.95,-3.27,-3.09,0.03,0.13,0.11,-23.75,-15.45,-8.2123055.00,-8.95,-3.27,-3.09,0.03,0.13,0.11,-23.75,-15.45,-8.2123069.00,-9.16,-2.92,-2.98,0.02,0.15,0.15,-23.75,-15.45,-8.2123080.00,-9.16,-2.92,-2.98,0.02,0.15,0.15,-23.75,-15.45,-8.2123091.00,-9.03,-4.47,-1.62,-0.12,0.16,0.21,-23.75,-15.45,-8.2123103.00,-9.14,-3.15,-3.27,-0.40,0.18,0.28,-23.75,-15.45,-8.2123116.00,-9.14,-3.15,-3.27,-0.40,0.18,0.28,-23.75,-15.45,-8.2123127.00,-9.31,-3.14,-3.07,-0.43,0.09,0.23,-23.75,-15.45,-8.2123139.00,-9.31,-3.14,-3.07,-0.43,0.09,0.23,-23.75,-15.45,-8.2123151.00,-8.98,-1.86,-4.23,-0.49,-0.08,0.12,-22.93,-12.73,-8.5323165.00,-8.35,-2.72,-4.74,-0.16,-0.31,-0.18,-22.93,-12.73,-8.5323177.00,-8.35,-2.72,-4.74,-0.16,-0.31,-0.18,-22.93,-12.73,-8.5323189.00,-8.67,-2.90,-3.56,0.12,-0.34,-0.26,-22.93,-12.73,-8.5323201.00,-9.10,-3.35,-2.25,0.14,-0.23,-0.22,-22.93,-12.73,-8.5323214.00,-9.10,-3.35,-2.25,0.14,-0.23,-0.22,-22.93,-12.73,-8.5323226.00,-9.03,-3.55,-2.50,-0.01,-0.09,-0.10,-22.93,-12.73,-8.5323238.00,-9.03,-3.55,-2.50,-0.01,-0.09,-0.10,-22.93,-12.73,-8.5323249.00,-9.02,-4.09,-2.16,-0.20,0.02,0.04,-22.93,-12.73,-8.5323262.00,-9.06,-3.13,-2.79,-0.46,0.08,0.19,-22.93,-12.73,-8.5323274.00,-9.06,-3.13,-2.79,-0.46,0.08,0.19,-22.93,-12.73,-8.5323286.00,-8.91,-2.77,-4.04,-0.56,0.03,0.19,-23.75,-14.09,-8.5323298.00,-8.91,-2.77,-4.04,-0.56,0.03,0.19,-23.75,-14.09,-8.5323312.00,-8.58,-2.49,-4.34,-0.35,-0.04,0.15,-23.75,-14.09,-8.5323324.00,-8.61,-3.35,-3.14,-0.02,0.01,0.14,-23.75,-14.09,-8.5323336.00,-8.61,-3.35,-3.14,-0.02,0.01,0.14,-23.75,-14.09,-8.5323347.00,-9.17,-2.40,-3.20,0.11,0.23,0.23,-23.75,-14.09,-8.5323361.00,-9.29,-2.88,-2.61,0.17,0.23,0.12,-23.75,-14.09,-8.5323373.00,-9.29,-2.88,-2.61,0.17,0.23,0.12,-23.75,-14.09,-8.5323385.00,-10.82,-1.84,-2.20,0.00,0.19,-0.04,-23.75,-14.09,-8.5323396.00,-10.82,-1.84,-2.20,0.00,0.19,-0.04,-23.75,-14.09,-8.5323410.00,-8.49,-3.41,-2.81,-0.24,0.17,-0.37,-24.79,-12.90,-9.9323421.00,-6.90,-4.09,-5.04,-0.40,0.05,-0.30,-24.79,-12.90,-9.9323433.00,-6.90,-4.09,-5.04,-0.40,0.05,-0.30,-24.79,-12.90,-9.9323446.00,-6.64,-4.41,-5.03,-0.31,-0.20,-0.01,-24.79,-12.90,-9.9323457.00,-6.64,-4.41,-5.03,-0.31,-0.20,-0.01,-24.79,-12.90,-9.9323469.00,-9.96,-2.51,-3.95,-0.13,-0.35,0.32,-24.79,-12.90,-9.9323480.00,-9.96,-2.51,-3.95,-0.13,-0.35,0.32,-24.79,-12.90,-9.9323493.00,-9.40,-2.07,-2.89,-0.06,-0.17,0.23,-24.79,-12.90,-9.9323504.00,-8.99,-2.58,-4.01,0.02,-0.01,0.13,-24.79,-12.90,-9.9323516.00,-8.99,-2.58,-4.01,0.02,-0.01,0.13,-24.79,-12.90,-9.9323528.00,-9.06,-2.46,-3.95,0.15,0.02,0.20,-24.17,-12.39,-9.7823541.00,-9.16,-3.14,-2.44,0.18,0.03,0.26,-24.17,-12.39,-9.7823553.00,-9.16,-3.14,-2.44,0.18,0.03,0.26,-24.17,-12.39,-9.7823564.00,-9.19,-3.13,-2.33,0.01,0.05,0.26,-24.17,-12.39,-9.7823575.00,-9.19,-3.13,-2.33,0.01,0.05,0.26,-24.17,-12.39,-9.7823588.00,-9.21,-2.51,-3.68,-0.19,0.05,0.23,-24.17,-12.39,-9.7823599.00,-9.21,-2.51,-3.68,-0.19,0.05,0.23,-24.17,-12.39,-9.7823611.00,-9.09,-1.92,-3.69,-0.21,-0.11,0.07,-24.17,-12.39,-9.7823622.00,-8.81,-2.43,-4.29,-0.19,-0.30,-0.21,-24.17,-12.39,-9.7823635.00,-8.81,-2.43,-4.29,-0.19,-0.30,-0.21,-24.17,-12.39,-9.7823647.00,-8.50,-2.69,-4.95,-0.16,-0.38,-0.34,-22.72,-12.90,-9.0023659.00,-8.50,-2.69,-4.95,-0.16,-0.38,-0.34,-22.72,-12.90,-9.0023670.00,-8.58,-3.39,-3.52,0.09,-0.36,-0.37,-22.72,-12.90,-9.0023684.00,-9.03,-2.61,-3.37,0.20,-0.17,-0.21,-22.72,-12.90,-9.0023696.00,-9.03,-2.61,-3.37,0.20,-0.17,-0.21,-22.72,-12.90,-9.0023707.00,-8.88,-3.82,-1.51,0.23,-0.03,-0.07,-22.72,-12.90,-9.0023719.00,-8.88,-3.82,-1.51,0.23,-0.03,-0.07,-22.72,-12.90,-9.0023732.00,-9.46,-2.11,-2.93,-0.06,0.17,0.17,-22.72,-12.90,-9.0023743.00,-9.31,-3.76,-1.88,-0.22,0.14,0.14,-22.72,-12.90,-9.0023755.00,-9.31,-3.76,-1.88,-0.22,0.14,0.14,-22.72,-12.90,-9.0023767.00,-9.50,-1.84,-3.91,-0.47,0.13,0.22,-22.72,-12.90,-9.0023780.00,-9.50,-1.84,-3.91,-0.47,0.13,0.22,-22.72,-12.90,-9.0023791.00,-10.71,-1.36,-3.54,-0.24,-0.09,-0.04,-23.75,-12.05,-9.1523802.00,-8.98,-2.48,-3.34,-0.12,-0.04,-0.48,-23.75,-12.05,-9.1523814.00,-8.98,-2.48,-3.34,-0.12,-0.04,-0.48,-23.75,-12.05,-9.1523827.00,-7.14,-3.26,-5.25,-0.10,-0.11,-0.61,-23.75,-12.05,-9.1523837.00,-7.14,-3.26,-5.25,-0.10,-0.11,-0.61,-23.75,-12.05,-9.1523849.00,-7.04,-3.23,-5.14,0.16,-0.46,-0.58,-23.75,-12.05,-9.1523861.00,-7.34,-4.24,-3.68,0.53,-0.76,-0.54,-23.75,-12.05,-9.1523873.00,-7.34,-4.24,-3.68,0.53,-0.76,-0.54,-23.75,-12.05,-9.1523885.00,-9.56,-3.86,-1.77,0.53,-0.71,-0.03,-23.75,-12.05,-9.1523896.00,-9.56,-3.86,-1.77,0.53,-0.71,-0.03,-23.75,-12.05,-9.1523908.00,-9.76,-3.33,-1.38,0.14,-0.27,0.19,-25.82,-12.05,-10.0923921.00,-9.24,-3.56,-2.96,-0.10,0.10,0.29,-25.82,-12.05,-10.0923932.00,-9.24,-3.56,-2.96,-0.10,0.10,0.29,-25.82,-12.05,-10.0923943.00,-8.47,-3.69,-3.41,-0.06,0.32,0.58,-25.82,-12.05,-10.0923955.00,-8.47,-3.69,-3.41,-0.06,0.32,0.58,-25.82,-12.05,-10.0923967.00,-8.48,-2.77,-4.23,0.07,0.46,0.74,-25.82,-12.05,-10.0923979.00,-8.48,-2.77,-4.23,0.07,0.46,0.74,-25.82,-12.05,-10.0923991.00,-9.37,-2.35,-2.89,0.18,0.33,0.58,-25.82,-12.05,-10.0924003.00,-9.06,-3.23,-2.03,0.18,-0.01,0.17,-25.82,-12.05,-10.0924016.00,-9.06,-3.23,-2.03,0.18,-0.01,0.17,-25.82,-12.05,-10.0924029.00,-9.33,-2.49,-2.86,-0.10,-0.13,0.01,-23.75,-13.07,-9.4624041.00,-9.04,-1.02,-3.64,-0.35,-0.28,-0.23,-23.75,-13.07,-9.4624053.00,-9.04,-1.02,-3.64,-0.35,-0.28,-0.23,-23.75,-13.07,-9.4624066.00,-9.47,-3.58,-1.83,-0.22,-0.44,-0.51,-23.75,-13.07,-9.4624078.00,-9.47,-3.58,-1.83,-0.22,-0.44,-0.51,-23.75,-13.07,-9.4624090.00,-9.29,-2.61,-3.00,-0.39,-0.42,-0.45,-23.75,-13.07,-9.4624102.00,-10.21,-1.45,-4.60,-0.16,-0.50,-0.55,-23.75,-13.07,-9.4624115.00,-10.21,-1.45,-4.60,-0.16,-0.50,-0.55,-23.75,-13.07,-9.4624127.00,-9.04,-2.50,-2.95,0.29,-0.50,-0.96,-23.75,-13.07,-9.4624139.00,-9.04,-2.50,-2.95,0.29,-0.50,-0.96,-23.75,-13.07,-9.4624150.00,-6.09,-5.41,-2.56,0.47,-0.41,-1.01,-26.23,-14.77,-6.6524163.00,-6.36,-5.82,-3.69,0.41,-0.38,-0.37,-26.23,-14.77,-6.6524175.00,-6.36,-5.82,-3.69,0.41,-0.38,-0.37,-26.23,-14.77,-6.6524186.00,-13.22,-2.37,-0.55,0.19,-0.38,0.27,-26.23,-14.77,-6.6524199.00,-13.22,-2.37,-0.55,0.19,-0.38,0.27,-26.23,-14.77,-6.6524211.00,-9.91,-2.63,-0.32,-0.17,-0.00,0.21,-26.23,-14.77,-6.6524222.00,-8.99,-4.34,-2.53,-0.52,0.36,0.45,-26.23,-14.77,-6.6524234.00,-8.99,-4.34,-2.53,-0.52,0.36,0.45,-26.23,-14.77,-6.6524247.00,-8.47,-3.17,-4.42,-0.60,0.56,0.92,-26.23,-14.77,-6.6524258.00,-8.47,-3.17,-4.42,-0.60,0.56,0.92,-26.23,-14.77,-6.6524270.00,-9.34,-2.84,-3.22,-0.35,0.54,1.01,-26.23,-14.77,-6.6524282.00,-8.95,-2.57,-2.42,-0.27,0.32,0.78,-24.99,-11.71,-8.8424295.00,-8.95,-2.57,-2.42,-0.27,0.32,0.78,-24.99,-11.71,-8.8424307.00,-9.18,-1.66,-3.17,-0.27,0.09,0.46,-24.99,-11.71,-8.8424319.00,-9.18,-1.66,-3.17,-0.27,0.09,0.46,-24.99,-11.71,-8.8424330.00,-9.25,-3.65,-2.00,-0.21,-0.11,0.13,-24.99,-11.71,-8.8424343.00,-9.67,0.01,-3.75,-0.42,-0.24,-0.04,-24.99,-11.71,-8.8424355.00,-9.67,0.01,-3.75,-0.42,-0.24,-0.04,-24.99,-11.71,-8.8424367.00,-9.33,-2.32,-2.70,-0.10,-0.64,-0.58,-24.99,-11.71,-8.8424379.00,-9.33,-2.32,-2.70,-0.10,-0.64,-0.58,-24.99,-11.71,-8.8424393.00,-9.23,-3.26,-2.77,0.03,-0.74,-0.65,-24.99,-11.71,-8.8424405.00,-11.81,-2.19,-1.72,0.13,-0.50,-0.42,-26.23,-14.77,-7.9024417.00,-11.81,-2.19,-1.72,0.13,-0.50,-0.42,-26.23,-14.77,-7.9024428.00,-9.14,-2.74,-2.19,-0.00,0.05,-0.42,-26.23,-14.77,-7.9024433.00,-9.14,-2.74,-2.19,-0.00,0.05,-0.42,-26.23,-14.77,-7.9024511.00,-9.02,-3.21,-2.27,0.28,-0.19,0.82,-26.23,-14.77,-7.9024590.00,-9.13,-2.64,-3.22,-0.20,-0.23,-0.10,-23.96,-12.56,-9.0024668.00,-9.19,-3.72,-1.74,0.15,0.28,0.13,-26.65,-11.03,-7.2824758.00,-9.53,-1.71,-3.19,-0.91,0.02,0.39,-26.65,-11.03,-7.2824770.00,-8.99,-0.96,-5.15,-0.71,-0.20,0.15,-26.65,-11.03,-7.2824782.00,-8.90,-1.97,-4.33,-0.25,-0.32,-0.02,-26.44,-9.84,-9.0024792.00,-8.90,-1.97,-4.33,-0.25,-0.32,-0.02,-26.44,-9.84,-9.0024806.00,-9.06,-2.08,-3.29,0.08,-0.31,-0.05,-26.44,-9.84,-9.0024817.00,-9.06,-2.08,-3.29,0.08,-0.31,-0.05,-26.44,-9.84,-9.0024828.00,-9.04,-2.66,-2.27,0.22,-0.21,-0.04,-26.44,-9.84,-9.0024839.00,-9.04,-2.66,-2.27,0.22,-0.21,-0.04,-26.44,-9.84,-9.0024853.00,-9.20,-1.87,-2.80,0.31,0.02,0.03,-26.44,-9.84,-9.0024865.00,-9.47,-2.52,-1.32,0.40,0.17,-0.02,-26.44,-9.84,-9.0024876.00,-9.47,-2.52,-1.32,0.40,0.17,-0.02,-26.44,-9.84,-9.0024887.00,-9.54,-2.30,-1.37,0.32,0.32,-0.09,-26.44,-9.84,-9.0024901.00,-12.09,-1.46,-2.40,0.29,0.44,-0.20,-26.44,-9.84,-9.0024913.00,-12.09,-1.46,-2.40,0.29,0.44,-0.20,-26.44,-9.16,-8.0624924.00,-10.84,-2.07,-2.79,0.31,0.50,-0.48,-26.44,-9.16,-8.0624935.00,-10.84,-2.07,-2.79,0.31,0.50,-0.48,-26.44,-9.16,-8.0624949.00,-7.18,-3.18,-6.52,0.54,0.55,-0.58,-26.44,-9.16,-8.0624961.00,-12.14,3.21,4.27,1.08,-0.74,0.16,-26.44,-9.16,-8.0624973.00,-12.14,3.21,4.27,1.08,-0.74,0.16,-26.44,-9.16,-8.0624985.00,-9.87,-2.14,-0.25,1.03,-0.32,-0.43,-26.44,-9.16,-8.0624998.00,-9.87,-2.14,-0.25,1.03,-0.32,-0.43,-26.44,-9.16,-8.0625010.00,-7.00,-2.57,-5.09,0.66,0.10,-0.59,-26.44,-9.16,-8.0625022.00,-7.67,-3.71,-4.53,1.08,0.13,-0.53,-23.96,-13.92,-8.6825032.00,-7.67,-3.71,-4.53,1.08,0.13,-0.53,-23.96,-13.92,-8.6825046.00,-6.14,-6.14,-6.30,1.27,0.63,-0.60,-23.96,-13.92,-8.6825058.00,-6.14,-6.14,-6.30,1.27,0.63,-0.60,-23.96,-13.92,-8.6825069.00,-7.43,-6.15,-5.88,1.14,0.65,-0.36,-23.96,-13.92,-8.6825081.00,-11.05,-4.32,-0.85,0.93,0.25,-0.13,-23.96,-13.92,-8.6825095.00,-11.05,-4.32,-0.85,0.93,0.25,-0.13,-23.96,-13.92,-8.6825107.00,-9.66,-3.34,0.50,0.16,0.15,-0.09,-23.96,-13.92,-8.6825119.00,-9.66,-3.34,0.50,0.16,0.15,-0.09,-23.96,-13.92,-8.6825131.00,-8.93,-3.45,-2.62,-0.54,0.02,0.01,-23.96,-13.92,-8.6825144.00,-8.86,-3.10,-5.10,-0.61,-0.06,0.12,-24.79,-16.30,-9.0025155.00,-8.86,-3.10,-5.10,-0.61,-0.06,0.12,-24.79,-16.30,-9.0025166.00,-7.90,-3.68,-4.18,-0.20,-0.10,0.11,-24.79,-16.30,-9.0025178.00,-7.90,-3.68,-4.18,-0.20,-0.10,0.11,-24.79,-16.30,-9.0025191.00,-8.78,-3.43,-3.16,0.00,-0.15,0.19,-24.79,-16.30,-9.0025201.00,-9.09,-3.20,-2.76,-0.02,-0.15,0.18,-24.79,-16.30,-9.0025213.00,-9.09,-3.20,-2.76,-0.02,-0.15,0.18,-24.79,-16.30,-9.0025225.00,-9.99,-3.66,-1.81,-0.11,-0.10,0.12,-24.79,-16.30,-9.0025238.00,-9.99,-3.66,-1.81,-0.11,-0.10,0.12,-24.79,-16.30,-9.0025249.00,-9.20,-2.55,-3.19,-0.29,-0.02,0.12,-24.79,-16.30,-9.0025261.00,-9.20,-2.55,-3.19,-0.29,-0.02,0.12,-24.79,-16.30,-9.0025273.00,-9.06,-3.10,-2.97,-0.22,-0.08,0.05,-24.79,-16.30,-9.0025286.00,-9.04,-3.69,-2.33,-0.17,-0.09,0.04,-22.51,-15.11,-9.1525298.00,-9.04,-3.69,-2.33,-0.17,-0.09,0.04,-22.51,-15.11,-9.1525310.00,-9.13,-3.17,-2.61,-0.24,-0.06,0.10,-22.51,-15.11,-9.1525321.00,-9.04,-2.71,-3.13,-0.32,-0.10,0.06,-22.51,-15.11,-9.1525335.00,-9.04,-2.71,-3.13,-0.32,-0.10,0.06,-22.51,-15.11,-9.1525347.00,-8.60,-2.91,-4.03,-0.20,-0.27,-0.17,-22.51,-15.11,-9.1525358.00,-8.60,-2.91,-4.03,-0.20,-0.27,-0.17,-22.51,-15.11,-9.1525370.00,-8.66,-3.07,-3.48,0.06,-0.28,-0.23,-22.51,-15.11,-9.1525383.00,-8.74,-2.87,-2.93,0.16,-0.21,-0.23,-22.51,-15.11,-9.1525393.00,-8.74,-2.87,-2.93,0.16,-0.21,-0.23,-22.51,-15.11,-9.1525405.00,-9.02,-3.85,-2.11,0.20,-0.09,-0.20,-23.75,-15.45,-8.2125417.00,-9.02,-3.85,-2.11,0.20,-0.09,-0.20,-23.75,-15.45,-8.2125431.00,-8.94,-4.36,-1.85,0.02,0.16,0.05,-23.75,-15.45,-8.2125443.00,-9.20,-3.71,-2.42,-0.38,0.48,0.46,-23.75,-15.45,-8.2125455.00,-9.20,-3.71,-2.42,-0.38,0.48,0.46,-23.75,-15.45,-8.2125466.00,-9.28,-3.11,-2.84,-0.69,0.45,0.57,-23.75,-15.45,-8.2125479.00,-9.28,-3.11,-2.84,-0.69,0.45,0.57,-23.75,-15.45,-8.2125491.00,-9.70,-2.28,-3.70,-0.78,0.23,0.41,-23.75,-15.45,-8.2125503.00,-9.29,-1.02,-4.49,-0.57,-0.11,0.04,-23.75,-15.45,-8.2125514.00,-9.29,-1.02,-4.49,-0.57,-0.11,0.04,-23.75,-15.45,-8.2125528.00,-11.11,-2.14,-2.88,-0.11,-0.34,-0.55,-23.55,-12.90,-10.2525540.00,-11.11,-2.14,-2.88,-0.11,-0.34,-0.55,-23.55,-12.90,-10.2525552.00,-7.10,-3.30,-4.23,-0.08,-0.07,-0.92,-23.55,-12.90,-10.2525564.00,-5.73,-4.65,-5.58,-0.03,-0.27,-0.86,-23.55,-12.90,-10.2525577.00,-5.73,-4.65,-5.58,-0.03,-0.27,-0.86,-23.55,-12.90,-10.2525589.00,-6.07,-5.37,-4.23,0.31,-0.64,-0.45,-23.55,-12.90,-10.2525600.00,-6.07,-5.37,-4.23,0.31,-0.64,-0.45,-23.55,-12.90,-10.2525612.00,-12.83,-3.19,-0.54,0.37,-0.71,0.20,-23.55,-12.90,-10.2525625.00,-10.14,-2.18,0.19,-0.16,-0.27,0.18,-23.55,-12.90,-10.2525637.00,-10.14,-2.18,0.19,-0.16,-0.27,0.18,-23.55,-12.90,-10.2525648.00,-8.99,-3.06,-4.28,-0.36,0.10,0.13,-23.13,-14.26,-9.3125662.00,-8.46,-5.01,-2.65,-0.16,0.20,0.36,-23.13,-14.26,-9.3125674.00,-8.46,-5.01,-2.65,-0.16,0.20,0.36,-23.13,-14.26,-9.3125685.00,-8.51,-3.44,-2.99,-0.25,0.40,0.76,-23.13,-14.26,-9.3125697.00,-8.51,-3.44,-2.99,-0.25,0.40,0.76,-23.13,-14.26,-9.3125711.00,-8.19,-3.39,-3.72,-0.15,0.41,0.76,-23.13,-14.26,-9.3125723.00,-9.00,-2.33,-3.73,-0.07,0.33,0.63,-23.13,-14.26,-9.3125735.00,-9.00,-2.33,-3.73,-0.07,0.33,0.63,-23.13,-14.26,-9.3125747.00,-9.13,-2.43,-3.27,-0.02,0.14,0.32,-23.13,-14.26,-9.3125759.00,-9.13,-2.43,-3.27,-0.02,0.14,0.32,-23.13,-14.26,-9.3125771.00,-9.16,-3.42,-2.36,-0.12,-0.09,0.07,-22.10,-13.07,-9.1525783.00,-9.03,-1.53,-4.13,-0.40,-0.26,-0.16,-22.10,-13.07,-9.1525795.00,-9.03,-1.53,-4.13,-0.40,-0.26,-0.16,-22.10,-13.07,-9.1525808.00,-9.56,-1.64,-2.00,-0.37,-0.55,-0.50,-22.10,-13.07,-9.1525820.00,-9.56,-1.64,-2.00,-0.37,-0.55,-0.50,-22.10,-13.07,-9.1525831.00,-9.43,-2.99,-2.04,-0.45,-0.57,-0.51,-22.10,-13.07,-9.1525842.00,-8.90,-2.27,-4.54,-0.42,-0.47,-0.35,-22.10,-13.07,-9.1525856.00,-8.90,-2.27,-4.54,-0.42,-0.47,-0.35,-22.10,-13.07,-9.1525868.00,-10.11,-3.54,-3.03,-0.01,-0.33,-0.25,-22.10,-13.07,-9.1525880.00,-10.11,-3.54,-3.03,-0.01,-0.33,-0.25,-22.10,-13.07,-9.1525891.00,-10.45,-1.77,-3.28,-0.09,-0.01,-0.22,-22.10,-13.07,-9.1525905.00,-8.51,-3.26,-2.71,-0.17,0.06,-0.40,-24.58,-12.05,-7.9025917.00,-8.51,-3.26,-2.71,-0.17,0.06,-0.40,-24.58,-12.05,-7.9025928.00,-9.02,-2.82,-2.05,-0.36,-0.11,-0.23,-24.58,-12.05,-7.9025939.00,-9.02,-2.82,-2.05,-0.36,-0.11,-0.23,-24.58,-12.05,-7.9025953.00,-8.18,-3.85,-3.48,-0.53,-0.18,-0.23,-24.58,-12.05,-7.9025964.00,-6.95,-4.38,-3.77,-0.41,-0.19,-0.19,-24.58,-12.05,-7.9025976.00,-6.95,-4.38,-3.77,-0.41,-0.19,-0.19,-24.58,-12.05,-7.9025988.00,-7.58,-3.99,-3.53,-0.16,-0.17,0.00,-24.58,-12.05,-7.9026000.00,-7.58,-3.99,-3.53,-0.16,-0.17,0.00,-24.58,-12.05,-7.9026012.00,-8.39,-3.32,-3.27,0.06,-0.12,0.18,-24.58,-12.05,-7.9026024.00,-9.76,-2.52,-2.66,0.12,-0.16,0.25,-25.41,-12.73,-9.4626036.00,-9.76,-2.52,-2.66,0.12,-0.16,0.25,-25.41,-12.73,-9.4626050.00,-9.66,-2.61,-2.51,0.11,-0.05,0.16,-25.41,-12.73,-9.4626062.00,-9.12,-2.97,-2.66,0.09,0.04,0.08,-25.41,-12.73,-9.4626074.00,-9.12,-2.97,-2.66,0.09,0.04,0.08,-25.41,-12.73,-9.4626085.00,-9.05,-3.13,-2.89,0.02,0.03,0.08,-25.41,-12.73,-9.4626098.00,-9.05,-3.13,-2.89,0.02,0.03,0.08,-25.41,-12.73,-9.4626110.00,-8.92,-3.11,-2.99,-0.03,-0.01,0.10,-25.41,-12.73,-9.4626122.00,-9.03,-3.07,-3.24,-0.05,-0.05,0.12,-25.41,-12.73,-9.4626133.00,-9.03,-3.07,-3.24,-0.05,-0.05,0.12,-25.41,-12.73,-9.4626138.00,-9.03,-3.07,-3.24,-0.05,-0.05,0.12,-25.41,-12.73,-9.4626218.00,-8.79,-2.80,-3.21,-0.21,-0.20,-0.04,-26.23,-12.39,-8.2126295.00,-9.30,-2.81,-1.83,-0.46,-0.43,-0.07,-25.20,-12.22,-8.3726375.00,-9.48,-2.42,-2.72,0.04,-0.04,0.22,-25.20,-12.22,-8.3726465.00,-9.69,-2.43,-2.30,-0.02,0.33,0.36,-25.82,-11.37,-8.5326477.00,-9.69,-2.43,-2.30,-0.02,0.33,0.36,-25.82,-11.37,-8.5326489.00,-10.00,-2.79,-1.77,-0.26,0.40,0.37,-25.82,-11.37,-8.5326500.00,-10.00,-2.79,-1.77,-0.26,0.40,0.37,-25.82,-11.37,-8.5326514.00,-10.00,-1.17,-3.81,-0.55,0.37,0.31,-25.82,-11.37,-8.5326525.00,-9.06,-1.66,-4.43,-0.40,-0.05,-0.11,-24.37,-11.20,-10.8726536.00,-9.06,-1.66,-4.43,-0.40,-0.05,-0.11,-24.37,-11.20,-10.8726548.00,-8.92,-2.46,-3.41,-0.26,-0.45,-0.48,-24.37,-11.20,-10.8726561.00,-8.92,-2.46,-3.41,-0.26,-0.45,-0.48,-24.37,-11.20,-10.8726572.00,-8.42,-2.97,-3.54,-0.22,-0.49,-0.53,-24.37,-11.20,-10.8726584.00,-8.43,-2.80,-3.60,-0.12,-0.45,-0.45,-24.37,-11.20,-10.8726597.00,-8.43,-2.80,-3.60,-0.12,-0.45,-0.45,-24.37,-11.20,-10.8726608.00,-8.11,-3.89,-2.88,0.02,-0.32,-0.26,-24.37,-11.20,-10.8726620.00,-8.11,-3.89,-2.88,0.02,-0.32,-0.26,-24.37,-11.20,-10.8726632.00,-8.45,-3.61,-2.71,-0.01,-0.08,0.15,-24.37,-11.20,-10.8726645.00,-9.00,-3.37,-2.37,-0.15,0.08,0.47,-26.23,-10.69,-8.8426656.00,-9.00,-3.37,-2.37,-0.15,0.08,0.47,-26.23,-10.69,-8.8426667.00,-9.57,-2.29,-2.48,-0.33,0.16,0.63,-26.23,-10.69,-8.8426679.00,-9.57,-2.29,-2.48,-0.33,0.16,0.63,-26.23,-10.69,-8.8426692.00,-10.22,-1.66,-2.03,-0.43,0.11,0.49,-26.23,-10.69,-8.8426704.00,-11.33,0.18,-3.39,-0.41,0.00,0.07,-26.23,-10.69,-8.8426715.00,-11.33,0.18,-3.39,-0.41,0.00,0.07,-26.23,-10.69,-8.8426727.00,-10.64,-0.14,-3.36,-0.19,-0.40,-0.82,-26.23,-10.69,-8.8426740.00,-10.64,-0.14,-3.36,-0.19,-0.40,-0.82,-26.23,-10.69,-8.8426751.00,-7.73,-3.31,-3.04,-0.04,-0.73,-1.50,-26.23,-10.69,-8.8426763.00,-7.58,-2.56,-4.16,-0.18,-0.94,-1.72,-26.44,-9.84,-7.1226775.00,-7.58,-2.56,-4.16,-0.18,-0.94,-1.72,-26.44,-9.84,-7.1226789.00,-8.03,-2.92,-4.54,0.34,-1.00,-1.89,-26.44,-9.84,-7.1226800.00,-8.03,-2.92,-4.54,0.34,-1.00,-1.89,-26.44,-9.84,-7.1226812.00,-7.23,-8.48,-0.21,0.98,-0.85,-1.34,-26.44,-9.84,-7.1226824.00,-7.76,-7.19,-0.69,0.09,0.03,0.30,-26.44,-9.84,-7.1226837.00,-7.76,-7.19,-0.69,0.09,0.03,0.30,-26.44,-9.84,-7.1226848.00,-7.63,-4.34,-3.78,-0.83,0.75,1.54,-26.44,-9.84,-7.1226860.00,-7.63,-4.34,-3.78,-0.83,0.75,1.54,-26.44,-9.84,-7.1226872.00,-8.64,-3.43,-2.79,-0.95,0.85,2.12,-26.44,-9.84,-7.1226885.00,-11.66,0.78,-1.97,-1.00,1.03,2.07,-26.44,-9.84,-7.1226897.00,-11.66,0.78,-1.97,-1.00,1.03,2.07,-26.44,-9.84,-7.1226908.00,-10.73,0.02,-1.83,-0.75,0.81,1.26,-26.44,-8.14,-9.0026919.00,-10.73,0.02,-1.83,-0.75,0.81,1.26,-26.44,-8.14,-9.0026933.00,-9.81,-1.52,-3.11,-0.59,0.47,0.56,-26.44,-8.14,-9.0026945.00,-9.21,-1.30,-3.43,-0.46,0.26,0.13,-26.44,-8.14,-9.0026957.00,-9.21,-1.30,-3.43,-0.46,0.26,0.13,-26.44,-8.14,-9.0026969.00,-10.08,-0.70,-3.56,-0.25,0.15,-0.19,-26.44,-8.14,-9.0026982.00,-11.28,-0.12,-1.75,0.07,0.30,-0.52,-26.44,-8.14,-9.0026994.00,-11.28,-0.12,-1.75,0.07,0.30,-0.52,-26.44,-8.14,-9.0027006.00,-10.77,-1.34,-0.40,0.23,0.76,-0.92,