time,ax,ay,az,gx,gy,gz,mx,my,mz1.00,-0.49,6.17,-7.81,-0.02,-0.04,-0.01,11.16,1.73,-15.5613.00,-0.49,6.17,-7.81,-0.02,-0.04,-0.01,11.16,1.73,-15.5625.00,-0.51,6.16,-7.83,-0.02,-0.04,-0.01,10.33,1.39,-15.8786.00,-0.51,6.13,-7.83,-0.02,-0.04,-0.00,10.33,1.39,-15.8798.00,-0.51,6.17,-7.82,-0.02,-0.04,-0.01,10.33,1.39,-15.87110.00,-0.51,6.17,-7.82,-0.02,-0.04,-0.01,10.33,1.39,-15.87122.00,-0.50,6.16,-7.83,-0.02,-0.04,-0.00,10.33,1.39,-15.87132.00,-0.50,6.16,-7.83,-0.02,-0.04,-0.00,10.33,1.39,-15.87146.00,-0.51,6.15,-7.82,-0.02,-0.04,-0.01,11.36,1.90,-14.47158.00,-0.50,6.15,-7.84,-0.02,-0.04,-0.01,11.36,1.90,-14.47170.00,-0.50,6.15,-7.84,-0.02,-0.04,-0.01,11.36,1.90,-14.47182.00,-0.52,6.13,-7.81,-0.02,-0.04,-0.01,11.36,1.90,-14.47187.00,-0.52,6.13,-7.81,-0.02,-0.04,-0.01,11.36,1.90,-14.47264.00,-0.50,6.13,-7.81,-0.02,-0.04,-0.01,10.74,1.39,-14.94343.00,-0.51,6.16,-7.78,-0.03,-0.04,-0.01,10.74,1.39,-14.94420.00,-0.50,6.16,-7.82,-0.03,-0.04,-0.01,11.36,0.54,-15.72511.00,-0.51,6.13,-7.81,-0.02,-0.04,-0.01,11.36,0.54,-15.72523.00,-0.52,6.15,-7.83,-0.02,-0.04,-0.01,9.71,1.22,-14.47534.00,-0.52,6.15,-7.83,-0.02,-0.04,-0.01,9.71,1.22,-14.47545.00,-0.49,6.17,-7.82,-0.02,-0.04,-0.01,9.71,1.22,-14.47559.00,-0.48,6.16,-7.82,-0.02,-0.04,-0.01,9.71,1.22,-14.47571.00,-0.48,6.16,-7.82,-0.02,-0.04,-0.01,9.71,1.22,-14.47582.00,-0.51,6.14,-7.82,-0.02,-0.04,-0.01,9.71,1.22,-14.47593.00,-0.51,6.14,-7.82,-0.02,-0.04,-0.01,9.71,1.22,-14.47607.00,-0.51,6.14,-7.82,-0.02,-0.04,-0.01,9.71,1.22,-14.47619.00,-0.51,6.14,-7.83,-0.02,-0.04,-0.01,9.71,1.22,-14.47631.00,-0.51,6.14,-7.83,-0.02,-0.04,-0.01,9.71,1.22,-14.47643.00,-0.51,6.14,-7.86,-0.03,-0.04,-0.01,10.54,0.20,-15.09654.00,-0.51,6.14,-7.86,-0.03,-0.04,-0.01,10.54,0.20,-15.09667.00,-0.50,6.17,-7.82,-0.03,-0.04,-0.01,10.54,0.20,-15.09677.00,-0.50,6.16,-7.81,-0.02,-0.04,-0.01,10.54,0.20,-15.09689.00,-0.50,6.16,-7.81,-0.02,-0.04,-0.01,10.54,0.20,-15.09701.00,-0.50,6.15,-7.81,-0.02,-0.04,-0.01,10.54,0.20,-15.09714.00,-0.50,6.15,-7.81,-0.02,-0.04,-0.01,10.54,0.20,-15.09725.00,-0.49,6.14,-7.83,-0.03,-0.04,-0.01,10.54,0.20,-15.09736.00,-0.50,6.16,-7.82,-0.02,-0.04,-0.01,10.54,0.20,-15.09748.00,-0.50,6.16,-7.82,-0.02,-0.04,-0.01,10.54,0.20,-15.09762.00,-0.50,6.16,-7.82,-0.02,-0.04,-0.01,10.54,-0.14,-15.40773.00,-0.50,6.16,-7.82,-0.02,-0.04,-0.01,10.54,-0.14,-15.40784.00,-0.50,6.17,-7.82,-0.02,-0.04,-0.01,10.54,-0.14,-15.40795.00,-0.50,6.17,-7.82,-0.02,-0.04,-0.01,10.54,-0.14,-15.40808.00,-0.49,6.17,-7.82,-0.02,-0.04,-0.01,10.54,-0.14,-15.40820.00,-0.50,6.14,-7.82,-0.03,-0.04,-0.01,10.54,-0.14,-15.40832.00,-0.50,6.14,-7.82,-0.03,-0.04,-0.01,10.54,-0.14,-15.40843.00,-0.51,6.14,-7.83,-0.02,-0.04,-0.01,10.54,-0.14,-15.40857.00,-0.52,6.14,-7.80,-0.03,-0.04,-0.01,10.54,-0.14,-15.40869.00,-0.52,6.14,-7.80,-0.03,-0.04,-0.01,10.54,-0.14,-15.40880.00,-0.49,6.15,-7.81,-0.03,-0.04,-0.01,10.54,-0.14,-15.40892.00,-0.49,6.15,-7.81,-0.03,-0.04,-0.01,10.54,-0.14,-15.40905.00,-0.49,6.16,-7.81,-0.02,-0.04,-0.01,10.33,-0.65,-15.25916.00,-0.51,6.15,-7.82,-0.02,-0.04,-0.01,10.33,-0.65,-15.25928.00,-0.51,6.15,-7.82,-0.02,-0.04,-0.01,10.33,-0.65,-15.25940.00,-0.51,6.15,-7.83,-0.02,-0.04,-0.01,10.33,-0.65,-15.25952.00,-0.51,6.15,-7.83,-0.02,-0.04,-0.01,10.33,-0.65,-15.25966.00,-0.50,6.14,-7.82,-0.02,-0.04,-0.01,10.33,-0.65,-15.25978.00,-0.51,6.14,-7.82,-0.02,-0.04,-0.01,10.33,-0.65,-15.25990.00,-0.51,6.14,-7.82,-0.02,-0.04,-0.01,10.33,-0.65,-15.251002.00,-0.50,6.15,-7.80,-0.02,-0.04,-0.01,10.33,-0.65,-15.251015.00,-0.50,6.15,-7.80,-0.02,-0.04,-0.01,10.33,-0.65,-15.251027.00,-0.51,6.16,-7.82,-0.02,-0.04,-0.01,10.54,0.20,-15.401039.00,-0.51,6.15,-7.83,-0.02,-0.04,-0.01,10.54,0.20,-15.401051.00,-0.51,6.15,-7.83,-0.02,-0.04,-0.01,10.54,0.20,-15.401064.00,-0.50,6.16,-7.84,-0.02,-0.04,-0.01,10.54,0.20,-15.401076.00,-0.49,6.14,-7.80,-0.02,-0.04,-0.01,10.54,0.20,-15.401088.00,-0.49,6.14,-7.80,-0.02,-0.04,-0.01,10.54,0.20,-15.401099.00,-0.49,6.16,-7.82,-0.03,-0.04,-0.01,10.54,0.20,-15.401112.00,-0.49,6.16,-7.82,-0.03,-0.04,-0.01,10.54,0.20,-15.401124.00,-0.49,6.15,-7.82,-0.03,-0.04,-0.01,10.54,0.20,-15.401136.00,-0.52,6.12,-7.82,-0.03,-0.04,-0.01,8.89,-0.48,-16.031148.00,-0.52,6.12,-7.82,-0.03,-0.04,-0.01,8.89,-0.48,-16.031161.00,-0.52,5.89,-8.10,-0.05,0.05,-0.12,8.89,-0.48,-16.031172.00,-0.52,5.89,-8.10,-0.05,0.05,-0.12,8.89,-0.48,-16.031184.00,-0.49,6.13,-7.77,-0.05,0.30,-0.43,8.89,-0.48,-16.031196.00,-0.49,6.13,-7.77,-0.05,0.30,-0.43,8.89,-0.48,-16.031208.00,0.08,6.31,-8.02,0.00,0.31,-0.42,8.89,-0.48,-16.031220.00,-0.45,6.56,-8.99,0.48,0.41,-0.28,8.89,-0.48,-16.031232.00,-0.45,6.56,-8.99,0.48,0.41,-0.28,8.89,-0.48,-16.031244.00,-0.60,6.30,-10.59,1.70,0.23,-0.03,8.89,-0.48,-16.031259.00,-0.32,4.49,-9.71,3.48,-0.25,0.42,12.40,-2.36,-15.871271.00,-0.32,4.49,-9.71,3.48,-0.25,0.42,12.40,-2.36,-15.871283.00,-1.51,2.12,-7.45,3.78,-0.53,1.21,12.40,-2.36,-15.871295.00,-1.51,2.12,-7.45,3.78,-0.53,1.21,12.40,-2.36,-15.871306.00,-0.27,4.95,-6.80,1.75,-0.27,1.77,12.40,-2.36,-15.871320.00,-2.68,12.76,-11.86,0.26,0.39,0.72,12.40,-2.36,-15.871332.00,-2.68,12.76,-11.86,0.26,0.39,0.72,12.40,-2.36,-15.871343.00,-1.68,10.05,-17.20,2.46,0.57,-1.41,12.40,-2.36,-15.871354.00,-1.68,10.05,-17.20,2.46,0.57,-1.41,12.40,-2.36,-15.871368.00,1.79,3.52,-16.19,5.08,-0.53,-2.57,12.40,-2.36,-15.871379.00,1.31,1.22,-11.26,5.22,-2.27,-2.28,12.40,-2.36,-15.871390.00,1.31,1.22,-11.26,5.22,-2.27,-2.28,12.40,-2.36,-15.871401.00,-0.82,0.65,-10.07,4.53,-3.12,-1.77,10.12,-15.79,-14.471414.00,-0.82,0.65,-10.07,4.53,-3.12,-1.77,10.12,-15.79,-14.471426.00,-1.14,-0.63,-8.84,4.39,-3.24,-1.51,10.12,-15.79,-14.471438.00,-1.84,0.79,-10.05,2.27,-3.35,-1.46,10.12,-15.79,-14.471449.00,-1.84,0.79,-10.05,2.27,-3.35,-1.46,10.12,-15.79,-14.471462.00,-1.56,1.81,-11.93,0.91,-3.80,-1.71,10.12,-15.79,-14.471474.00,-1.56,1.81,-11.93,0.91,-3.80,-1.71,10.12,-15.79,-14.471486.00,-2.24,0.43,-10.58,0.64,-4.64,-2.15,10.12,-15.79,-14.471497.00,-3.38,-0.54,-9.17,-0.22,-5.30,-2.61,10.12,-15.79,-14.471511.00,-3.38,-0.54,-9.17,-0.22,-5.30,-2.61,10.12,-15.79,-14.471523.00,-2.72,-1.02,-7.40,-1.22,-5.62,-3.10,-2.48,-22.77,-12.121535.00,-2.72,-1.02,-7.40,-1.22,-5.62,-3.10,-2.48,-22.77,-12.121546.00,-5.38,-1.39,-4.03,-2.84,-5.35,-3.53,-2.48,-22.77,-12.121559.00,-6.89,-1.56,-0.42,-4.85,-4.31,-3.96,-2.48,-22.77,-12.121570.00,-6.89,-1.56,-0.42,-4.85,-4.31,-3.96,-2.48,-22.77,-12.121582.00,-6.50,-2.08,-0.18,-6.53,-2.49,-4.24,-2.48,-22.77,-12.121593.00,-6.50,-2.08,-0.18,-6.53,-2.49,-4.24,-2.48,-22.77,-12.121606.00,-3.66,-5.32,-3.51,-6.31,-0.22,-3.83,-2.48,-22.77,-12.121618.00,-2.58,-9.09,-6.61,-2.96,1.54,-1.90,-2.48,-22.77,-12.121630.00,-2.58,-9.09,-6.61,-2.96,1.54,-1.90,-2.48,-22.77,-12.121641.00,-5.34,3.67,-9.33,-2.09,1.50,0.04,-8.67,-8.14,-16.501654.00,-5.34,3.67,-9.33,-2.09,1.50,0.04,-8.67,-8.14,-16.501666.00,-10.46,-0.57,-8.82,-0.65,0.91,-0.87,-8.67,-8.14,-16.501677.00,-5.06,0.34,-4.84,-1.25,-0.25,-1.18,-8.67,-8.14,-16.501689.00,-5.06,0.34,-4.84,-1.25,-0.25,-1.18,-8.67,-8.14,-16.501704.00,-5.08,-0.49,-8.68,-1.07,-0.56,-1.38,-8.67,-8.14,-16.501716.00,-5.08,-0.49,-8.68,-1.07,-0.56,-1.38,-8.67,-8.14,-16.501728.00,-5.31,-0.44,-7.50,-1.06,-0.74,-1.58,-8.67,-8.14,-16.501740.00,-5.61,-1.86,-5.38,-0.88,-0.77,-1.77,-8.67,-8.14,-16.501754.00,-5.61,-1.86,-5.38,-0.88,-0.77,-1.77,-8.67,-8.14,-16.501766.00,-5.87,-2.55,-4.44,-2.63,-0.77,-1.90,-8.67,-5.42,-17.751777.00,-7.40,1.05,-6.62,-4.70,-0.67,-1.95,-8.67,-5.42,-17.751789.00,-7.40,1.05,-6.62,-4.70,-0.67,-1.95,-8.67,-5.42,-17.751802.00,-8.55,4.65,-6.87,-5.01,-0.61,-2.60,-8.67,-5.42,-17.751813.00,-8.55,4.65,-6.87,-5.01,-0.61,-2.60,-8.67,-5.42,-17.751825.00,-5.38,-3.10,-8.44,-2.66,-0.17,-3.45,-8.67,-5.42,-17.751837.00,-4.77,-8.12,-6.32,-0.20,0.21,-1.68,-8.67,-5.42,-17.751850.00,-4.77,-8.12,-6.32,-0.20,0.21,-1.68,-8.67,-5.42,-17.751861.00,-7.62,-0.28,-7.21,-1.25,0.20,0.34,-8.67,-5.42,-17.751873.00,-7.62,-0.28,-7.21,-1.25,0.20,0.34,-8.67,-5.42,-17.751885.00,-12.83,4.35,-7.93,0.62,0.39,0.70,-8.67,-5.42,-17.751898.00,-11.34,3.03,-7.08,3.94,0.69,0.11,-10.12,2.92,-15.401910.00,-11.34,3.03,-7.08,3.94,0.69,0.11,-10.12,2.92,-15.401922.00,-5.42,0.74,-10.54,5.46,0.55,-0.23,-10.12,2.92,-15.401933.00,-5.42,0.74,-10.54,5.46,0.55,-0.23,-10.12,2.92,-15.401947.00,-2.62,-3.33,-4.19,7.64,-0.13,-0.10,-10.12,2.92,-15.401959.00,-2.52,-6.55,-5.25,3.86,-0.15,0.04,-10.12,2.92,-15.401970.00,-2.52,-6.55,-5.25,3.86,-0.15,0.04,-10.12,2.92,-15.401982.00,-5.90,-4.89,-4.60,1.01,0.17,0.73,-10.12,2.92,-15.401994.00,-5.90,-4.89,-4.60,1.01,0.17,0.73,-10.12,2.92,-15.402006.00,-6.93,-1.66,-6.91,-0.67,0.40,1.02,-10.12,2.92,-15.402018.00,-9.89,1.34,-10.24,-1.50,0.23,0.83,-9.71,-12.05,-15.722030.00,-9.89,1.34,-10.24,-1.50,0.23,0.83,-9.71,-12.05,-15.722044.00,-6.93,1.86,-9.15,-0.63,-0.20,-0.00,-9.71,-12.05,-15.722056.00,-6.93,1.86,-9.15,-0.63,-0.20,-0.00,-9.71,-12.05,-15.722067.00,-7.24,-0.75,-6.13,-0.23,-0.64,-0.98,-9.71,-12.05,-15.722079.00,-7.12,-2.51,-5.92,1.14,-0.58,-1.28,-9.71,-12.05,-15.722091.00,-7.12,-2.51,-5.92,1.14,-0.58,-1.28,-9.71,-12.05,-15.722103.00,-6.47,-5.23,-4.57,1.52,-0.41,-1.15,-9.71,-12.05,-15.722115.00,-6.47,-5.23,-4.57,1.52,-0.41,-1.15,-9.71,-12.05,-15.722127.00,-6.83,-4.57,-4.96,0.27,-0.44,-0.57,-9.71,-12.05,-15.722140.00,-7.81,-2.10,-6.43,-0.61,-0.44,-0.13,-8.67,-12.22,-16.812151.00,-7.81,-2.10,-6.43,-0.61,-0.44,-0.13,-8.67,-12.22,-16.812162.00,-6.20,-2.14,-5.05,0.11,-0.42,-0.17,-8.67,-12.22,-16.812173.00,-6.20,-2.14,-5.05,0.11,-0.42,-0.17,-8.67,-12.22,-16.812187.00,-6.92,-1.00,-6.42,-0.98,-0.47,-0.71,-8.67,-12.22,-16.812199.00,-5.33,-0.87,-6.40,-1.38,-0.55,-1.26,-8.67,-12.22,-16.812209.00,-5.33,-0.87,-6.40,-1.38,-0.55,-1.26,-8.67,-12.22,-16.812221.00,-9.98,-2.04,-9.25,-0.21,-0.60,-1.37,-8.67,-12.22,-16.812235.00,-9.98,-2.04,-9.25,-0.21,-0.60,-1.37,-8.67,-12.22,-16.812247.00,-8.70,-5.71,-2.84,2.58,-0.45,-0.48,-8.67,-12.22,-16.812258.00,-6.12,-7.87,-5.12,1.03,-0.34,0.11,-11.15,-13.58,-16.192268.00,-6.12,-7.87,-5.12,1.03,-0.34,0.11,-11.15,-13.58,-16.192282.00,-7.63,-2.78,-5.98,-0.10,-0.48,0.89,-11.15,-13.58,-16.192293.00,-7.63,-2.78,-5.98,-0.10,-0.48,0.89,-11.15,-13.58,-16.192303.00,-7.61,-1.42,-6.05,0.36,-0.55,0.83,-11.15,-13.58,-16.192315.00,-7.61,-1.42,-6.05,0.36,-0.55,0.83,-11.15,-13.58,-16.192329.00,-8.66,-4.75,-6.04,0.43,-0.70,0.44,-11.15,-13.58,-16.192341.00,-8.86,-4.27,-4.57,-0.43,-0.67,0.53,-11.15,-13.58,-16.192351.00,-8.86,-4.27,-4.57,-0.43,-0.67,0.53,-11.15,-13.58,-16.192363.00,-7.64,-2.80,-3.59,0.20,-0.03,0.58,-11.15,-13.58,-16.192377.00,-7.56,-3.07,-5.54,0.57,0.36,0.47,-11.98,-14.26,-14.002388.00,-7.56,-3.07,-5.54,0.57,0.36,0.47,-11.98,-14.26,-14.002399.00,-7.69,-2.82,-6.52,0.23,0.09,0.31,-11.98,-14.26,-14.002411.00,-7.69,-2.82,-6.52,0.23,0.09,0.31,-11.98,-14.26,-14.002425.00,-7.46,-3.47,-6.13,-0.27,-0.23,0.20,-11.98,-14.26,-14.002436.00,-7.46,-3.47,-6.13,-0.27,-0.23,0.20,-11.98,-14.26,-14.002448.00,-6.76,-3.54,-5.70,0.01,-0.15,0.30,-11.98,-14.26,-14.002460.00,-7.72,-2.66,-6.43,0.13,-0.03,0.37,-11.98,-14.26,-14.002473.00,-7.72,-2.66,-6.43,0.13,-0.03,0.37,-11.98,-14.26,-14.002484.00,-8.46,-2.07,-5.55,0.41,-0.17,0.25,-11.98,-14.26,-14.002496.00,-8.46,-2.07,-5.55,0.41,-0.17,0.25,-11.98,-14.26,-14.002508.00,-8.96,-3.30,-4.35,0.59,-0.33,-0.01,-11.98,-14.26,-14.002521.00,-8.53,-4.34,-4.07,0.09,-0.24,-0.03,-13.42,-15.45,-14.782533.00,-8.53,-4.34,-4.07,0.09,-0.24,-0.03,-13.42,-15.45,-14.782545.00,-7.23,-3.09,-6.08,-0.50,0.02,0.21,-13.42,-15.45,-14.782555.00,-7.23,-3.09,-6.08,-0.50,0.02,0.21,-13.42,-15.45,-14.782569.00,-7.28,-1.25,-7.86,0.07,-0.11,0.39,-13.42,-15.45,-14.782579.00,-8.01,-1.11,-6.59,1.15,-0.60,0.13,-13.42,-15.45,-14.782591.00,-8.01,-1.11,-6.59,1.15,-0.60,0.13,-13.42,-15.45,-14.782603.00,-8.05,-3.33,-3.95,1.88,-0.79,-0.24,-13.42,-15.45,-14.782616.00,-8.05,-3.33,-3.95,1.88,-0.79,-0.24,-13.42,-15.45,-14.782628.00,-8.29,-4.42,-2.51,2.52,-0.45,-0.29,-13.42,-15.45,-14.782640.00,-8.70,-5.27,-2.89,1.90,-0.16,-0.13,-16.52,-19.36,-11.182651.00,-8.70,-5.27,-2.89,1.90,-0.16,-0.13,-16.52,-19.36,-11.182656.00,-8.70,-5.27,-2.89,1.90,-0.16,-0.13,-16.52,-19.36,-11.182734.00,-8.69,-3.65,-3.87,-0.43,-0.37,0.15,-16.52,-19.36,-11.182813.00,-8.19,-3.58,-4.40,-0.34,-0.06,0.02,-15.70,-16.98,-11.182891.00,-8.03,-3.80,-4.47,-0.11,-0.09,-0.05,-14.46,-16.64,-12.122982.00,-7.97,-3.43,-4.81,-0.05,-0.07,-0.05,-14.46,-16.64,-12.122994.00,-7.97,-3.43,-4.81,-0.05,-0.07,-0.05,-14.46,-16.64,-12.123006.00,-8.09,-3.47,-4.48,0.02,-0.08,-0.01,-14.46,-16.64,-12.123016.00,-8.09,-3.47,-4.48,0.02,-0.08,-0.01,-14.46,-16.64,-12.123030.00,-8.37,-3.23,-4.53,0.04,-0.07,0.02,-15.70,-14.94,-11.503042.00,-8.38,-2.93,-4.76,0.08,-0.06,-0.02,-15.70,-14.94,-11.503054.00,-8.38,-2.93,-4.76,0.08,-0.06,-0.02,-15.70,-14.94,-11.503066.00,-8.03,-3.39,-4.90,0.21,-0.07,-0.11,-15.70,-14.94,-11.503080.00,-7.74,-3.98,-4.53,0.24,-0.10,-0.10,-15.70,-14.94,-11.503092.00,-7.74,-3.98,-4.53,0.24,-0.10,-0.10,-15.70,-14.94,-11.503104.00,-8.02,-3.44,-4.72,0.15,-0.13,0.00,-15.70,-14.94,-11.503115.00,-8.02,-3.44,-4.72,0.15,-0.13,0.00,-15.70,-14.94,-11.503129.00,-8.56,-3.54,-3.84,0.17,-0.16,0.03,-15.70,-14.94,-11.503140.00,-8.59,-3.25,-4.19,0.05,-0.08,0.03,-15.49,-17.15,-11.973151.00,-8.59,-3.25,-4.19,0.05,-0.08,0.03,-15.49,-17.15,-11.973163.00,-8.19,-3.35,-4.58,0.02,-0.05,-0.01,-15.49,-17.15,-11.973176.00,-8.19,-3.35,-4.58,0.02,-0.05,-0.01,-15.49,-17.15,-11.973187.00,-8.22,-3.50,-4.41,0.05,-0.10,-0.05,-15.49,-17.15,-11.973199.00,-8.24,-3.67,-4.19,0.01,-0.11,-0.06,-15.49,-17.15,-11.973211.00,-8.24,-3.67,-4.19,0.01,-0.11,-0.06,-15.49,-17.15,-11.973225.00,-8.36,-3.57,-4.25,-0.10,-0.08,-0.03,-15.49,-17.15,-11.973236.00,-8.36,-3.57,-4.25,-0.10,-0.08,-0.03,-15.49,-17.15,-11.973248.00,-8.48,-3.39,-4.32,-0.18,-0.04,-0.03,-15.49,-17.15,-11.973260.00,-8.45,-3.19,-4.50,-0.20,-0.02,-0.08,-15.70,-16.98,-11.503274.00,-8.45,-3.19,-4.50,-0.20,-0.02,-0.08,-15.70,-16.98,-11.503284.00,-8.03,-3.86,-4.10,-0.10,-0.05,-0.16,-15.70,-16.98,-11.503296.00,-8.03,-3.86,-4.10,-0.10,-0.05,-0.16,-15.70,-16.98,-11.503308.00,-7.95,-3.65,-4.58,-0.17,-0.04,-0.10,-15.70,-16.98,-11.503321.00,-7.95,-3.48,-4.64,-0.20,-0.07,-0.06,-15.70,-16.98,-11.503332.00,-7.95,-3.48,-4.64,-0.20,-0.07,-0.06,-15.70,-16.98,-11.503344.00,-7.74,-3.78,-4.62,-0.22,-0.11,-0.03,-15.70,-16.98,-11.503356.00,-7.74,-3.78,-4.62,-0.22,-0.11,-0.03,-15.70,-16.98,-11.503368.00,-7.15,-3.61,-5.49,-0.25,-0.21,0.05,-15.70,-16.98,-11.503380.00,-8.16,-2.82,-5.51,-0.08,-0.49,0.12,-16.94,-14.94,-11.183391.00,-8.16,-2.82,-5.51,-0.08,-0.49,0.12,-16.94,-14.94,-11.183404.00,-8.61,-3.98,-3.43,0.04,-0.42,-0.06,-16.94,-14.94,-11.183416.00,-8.61,-3.98,-3.43,0.04,-0.42,-0.06,-16.94,-14.94,-11.183428.00,-8.27,-2.34,-5.29,-0.08,-0.16,-0.11,-16.94,-14.94,-11.183440.00,-7.76,-2.12,-5.47,0.31,-0.17,-0.28,-16.94,-14.94,-11.183453.00,-7.76,-2.12,-5.47,0.31,-0.17,-0.28,-16.94,-14.94,-11.183465.00,-8.31,-3.25,-4.97,0.84,-0.21,-0.43,-16.94,-14.94,-11.183477.00,-8.31,-3.25,-4.97,0.84,-0.21,-0.43,-16.94,-14.94,-11.183488.00,-8.32,-4.42,-4.22,1.10,-0.11,-0.35,-16.94,-14.94,-11.183501.00,-9.28,-4.99,-2.22,0.80,0.10,-0.05,-16.94,-14.94,-11.183511.00,-9.28,-4.99,-2.22,0.80,0.10,-0.05,-16.94,-14.94,-11.183525.00,-9.07,-4.58,-1.74,-0.04,0.34,0.43,-17.35,-18.68,-9.623536.00,-9.07,-4.58,-1.74,-0.04,0.34,0.43,-17.35,-18.68,-9.623549.00,-8.98,-4.39,-2.00,-0.68,0.49,0.78,-17.35,-18.68,-9.623561.00,-8.72,-1.93,-6.16,-1.36,0.45,0.97,-17.35,-18.68,-9.623573.00,-8.72,-1.93,-6.16,-1.36,0.45,0.97,-17.35,-18.68,-9.623585.00,-8.28,-3.17,-4.47,-1.30,0.10,0.74,-17.35,-18.68,-9.623598.00,-8.29,-1.71,-5.13,-1.15,-0.10,0.52,-17.35,-18.68,-9.623610.00,-8.29,-1.71,-5.13,-1.15,-0.10,0.52,-17.35,-18.68,-9.623622.00,-8.02,-2.07,-5.25,-0.60,-0.29,0.03,-17.35,-18.68,-9.623632.00,-8.02,-2.07,-5.25,-0.60,-0.29,0.03,-17.35,-18.68,-9.623646.00,-7.70,-2.03,-6.52,-0.06,-0.34,-0.38,-18.18,-14.94,-11.503658.00,-7.37,-1.73,-6.75,0.71,-0.49,-0.70,-18.18,-14.94,-11.503670.00,-7.37,-1.73,-6.75,0.71,-0.49,-0.70,-18.18,-14.94,-11.503682.00,-7.00,-2.58,-5.64,1.51,-0.61,-0.98,-18.18,-14.94,-11.503696.00,-7.00,-2.58,-5.64,1.51,-0.61,-0.98,-18.18,-14.94,-11.503708.00,-7.94,-4.87,-1.60,1.67,-0.52,-0.92,-18.18,-14.94,-11.503720.00,-9.00,-4.77,-0.58,1.19,-0.15,-0.51,-18.18,-14.94,-11.503731.00,-9.00,-4.77,-0.58,1.19,-0.15,-0.51,-18.18,-14.94,-11.503744.00,-9.31,-5.24,-1.37,0.45,0.27,-0.12,-18.18,-14.94,-11.503756.00,-9.31,-5.24,-1.37,0.45,0.27,-0.12,-18.18,-14.94,-11.503768.00,-10.82,-3.35,-3.14,-0.55,0.58,0.16,-16.32,-18.51,-10.403779.00,-7.78,-4.14,-3.97,-1.02,0.76,-0.00,-16.32,-18.51,-10.403793.00,-7.78,-4.14,-3.97,-1.02,0.76,-0.00,-16.32,-18.51,-10.403805.00,-7.24,-2.66,-7.06,-1.01,0.65,-0.01,-16.32,-18.51,-10.403816.00,-7.24,-2.66,-7.06,-1.01,0.65,-0.01,-16.32,-18.51,-10.403827.00,-6.33,-4.15,-5.89,-0.28,0.22,-0.22,-16.32,-18.51,-10.403840.00,-6.09,-4.32,-6.01,0.19,-0.16,-0.16,-16.32,-18.51,-10.403852.00,-6.09,-4.32,-6.01,0.19,-0.16,-0.16,-16.32,-18.51,-10.403864.00,-6.66,-4.24,-5.68,0.37,-0.40,0.09,-16.32,-18.51,-10.403875.00,-6.66,-4.24,-5.68,0.37,-0.40,0.09,-16.32,-18.51,-10.403888.00,-7.78,-4.27,-3.91,0.43,-0.56,0.38,-16.11,-18.34,-10.563900.00,-11.12,-3.08,-1.85,0.16,-0.47,0.50,-16.11,-18.34,-10.563912.00,-11.12,-3.08,-1.85,0.16,-0.47,0.50,-16.11,-18.34,-10.563923.00,-9.33,-2.97,-2.99,-0.32,0.05,0.50,-16.11,-18.34,-10.563937.00,-9.33,-2.97,-2.99,-0.32,0.05,0.50,-16.11,-18.34,-10.563948.00,-8.49,-3.70,-3.97,-0.41,0.24,0.61,-16.11,-18.34,-10.563959.00,-8.70,-1.31,-5.90,-0.40,0.22,0.60,-16.11,-18.34,-10.563971.00,-8.70,-1.31,-5.90,-0.40,0.22,0.60,-16.11,-18.34,-10.563985.00,-9.32,-2.45,-4.61,-0.02,0.11,0.34,-16.11,-18.34,-10.563997.00,-9.32,-2.45,-4.61,-0.02,0.11,0.34,-16.11,-18.34,-10.564008.00,-9.79,-2.84,-2.96,-0.01,0.14,-0.05,-16.11,-18.34,-10.564019.00,-8.51,-3.35,-3.33,-0.26,0.33,-0.36,-17.14,-15.79,-12.284032.00,-8.51,-3.35,-3.33,-0.26,0.33,-0.36,-17.14,-15.79,-12.284044.00,-7.61,-3.19,-4.83,-0.46,0.27,-0.43,-17.14,-15.79,-12.284056.00,-7.61,-3.19,-4.83,-0.46,0.27,-0.43,-17.14,-15.79,-12.284068.00,-6.98,-4.02,-5.08,-0.40,0.06,-0.45,-17.14,-15.79,-12.284081.00,-6.54,-3.95,-5.65,-0.34,-0.04,-0.26,-17.14,-15.79,-12.284093.00,-6.54,-3.95,-5.65,-0.34,-0.04,-0.26,-17.14,-15.79,-12.284106.00,-7.64,-3.55,-5.35,-0.18,-0.12,-0.03,-17.14,-15.79,-12.284118.00,-8.20,-3.35,-4.57,-0.05,-0.14,0.03,-17.14,-15.79,-12.284131.00,-8.20,-3.35,-4.57,-0.05,-0.14,0.03,-17.14,-15.79,-12.284142.00,-8.20,-3.36,-4.46,-0.05,-0.15,0.01,-15.90,-15.79,-11.974154.00,-8.20,-3.36,-4.46,-0.05,-0.15,0.01,-15.90,-15.79,-11.974166.00,-7.83,-3.52,-4.63,-0.07,-0.14,0.02,-15.90,-15.79,-11.974178.00,-8.16,-3.46,-4.61,-0.07,-0.13,0.06,-15.90,-15.79,-11.974190.00,-8.16,-3.46,-4.61,-0.07,-0.13,0.06,-15.90,-15.79,-11.974202.00,-8.34,-3.20,-4.58,-0.09,-0.11,0.07,-15.90,-15.79,-11.974214.00,-8.34,-3.20,-4.58,-0.09,-0.11,0.07,-15.90,-15.79,-11.974227.00,-8.26,-3.24,-4.59,-0.07,-0.11,0.04,-15.90,-15.79,-11.974239.00,-7.99,-3.40,-4.76,-0.06,-0.11,0.02,-15.90,-15.79,-11.974250.00,-7.99,-3.40,-4.76,-0.06,-0.11,0.02,-15.90,-15.79,-11.974261.00,-7.74,-3.41,-5.10,-0.03,-0.14,0.06,-16.11,-15.96,-12.124275.00,-7.74,-3.41,-5.10,-0.03,-0.14,0.06,-16.11,-15.96,-12.124287.00,-7.61,-3.37,-5.02,0.07,-0.23,0.12,-16.11,-15.96,-12.124299.00,-8.28,-3.23,-4.76,0.19,-0.35,0.21,-16.11,-15.96,-12.124311.00,-8.28,-3.23,-4.76,0.19,-0.35,0.21,-16.11,-15.96,-12.124324.00,-9.75,-3.39,-3.20,0.19,-0.37,0.15,-16.11,-15.96,-12.124336.00,-9.75,-3.39,-3.20,0.19,-0.37,0.15,-16.11,-15.96,-12.124348.00,-8.60,-3.59,-3.38,-0.13,-0.15,0.07,-16.11,-15.96,-12.124359.00,-8.56,-3.43,-3.94,-0.36,-0.02,0.13,-16.11,-15.96,-12.124373.00,-8.56,-3.43,-3.94,-0.36,-0.02,0.13,-16.11,-15.96,-12.124385.00,-8.81,-3.22,-4.24,-0.42,0.01,0.16,-16.73,-14.43,-12.594396.00,-8.81,-3.22,-4.24,-0.42,0.01,0.16,-16.73,-14.43,-12.594408.00,-8.48,-2.44,-4.69,-0.50,-0.04,0.16,-16.73,-14.43,-12.594422.00,-8.42,-2.28,-4.89,-0.39,-0.13,0.01,-16.73,-14.43,-12.594434.00,-8.42,-2.28,-4.89,-0.39,-0.13,0.01,-16.73,-14.43,-12.594445.00,-8.16,-2.28,-4.87,-0.15,-0.20,-0.14,-16.73,-14.43,-12.594456.00,-8.16,-2.28,-4.87,-0.15,-0.20,-0.14,-16.73,-14.43,-12.594470.00,-7.91,-3.35,-4.88,0.10,-0.21,-0.22,-16.73,-14.43,-12.594482.00,-8.17,-2.81,-4.72,0.18,-0.15,-0.13,-16.73,-14.43,-12.594494.00,-8.17,-2.81,-4.72,0.18,-0.15,-0.13,-16.73,-14.43,-12.594507.00,-8.33,-4.07,-3.54,0.26,-0.05,-0.06,-16.73,-14.43,-12.594519.00,-8.74,-3.46,-4.19,0.00,0.15,0.17,-18.18,-13.92,-11.184531.00,-8.74,-3.46,-4.19,0.00,0.15,0.17,-18.18,-13.92,-11.184542.00,-8.53,-4.63,-2.80,-0.23,0.11,0.20,-18.18,-13.92,-11.184556.00,-8.53,-4.63,-2.80,-0.23,0.11,0.20,-18.18,-13.92,-11.184568.00,-8.67,-2.86,-4.38,-0.59,0.18,0.34,-18.18,-13.92,-11.184579.00,-8.86,-2.59,-4.71,-0.66,0.09,0.32,-18.18,-13.92,-11.184591.00,-8.86,-2.59,-4.71,-0.66,0.09,0.32,-18.18,-13.92,-11.184604.00,-8.67,-2.37,-4.94,-0.65,-0.01,0.23,-18.18,-13.92,-11.184614.00,-8.67,-2.37,-4.94,-0.65,-0.01,0.23,-18.18,-13.92,-11.184626.00,-8.47,-0.85,-5.70,-0.50,-0.11,0.05,-18.18,-13.92,-11.184638.00,-7.74,-2.47,-5.66,-0.05,-0.26,-0.23,-18.18,-14.26,-12.124651.00,-7.74,-2.47,-5.66,-0.05,-0.26,-0.23,-18.18,-14.26,-12.124663.00,-7.99,-3.01,-5.61,0.30,-0.22,-0.25,-18.18,-14.26,-12.124675.00,-7.99,-3.01,-5.61,0.30,-0.22,-0.25,-18.18,-14.26,-12.124687.00,-8.32,-3.05,-4.08,0.40,-0.20,-0.15,-18.18,-14.26,-12.124701.00,-8.41,-4.39,-3.12,0.26,-0.06,-0.02,-18.18,-14.26,-12.124713.00,-8.41,-4.39,-3.12,0.26,-0.06,-0.02,-18.18,-14.26,-12.124725.00,-8.73,-2.84,-4.30,-0.17,0.11,0.22,-18.18,-14.26,-12.124736.00,-8.73,-2.84,-4.30,-0.17,0.11,0.22,-18.18,-14.26,-12.124749.00,-8.72,-3.74,-3.24,-0.39,0.10,0.27,-18.18,-14.26,-12.124761.00,-8.87,-2.40,-4.93,-0.71,0.16,0.36,-17.35,-13.24,-11.814773.00,-8.87,-2.40,-4.93,-0.71,0.16,0.36,-17.35,-13.24,-11.814784.00,-8.57,-1.77,-4.85,-0.70,0.05,0.25,-17.35,-13.24,-11.814798.00,-8.61,-1.26,-5.26,-0.40,-0.01,0.07,-17.35,-13.24,-11.814810.00,-8.61,-1.26,-5.26,-0.40,-0.01,0.07,-17.35,-13.24,-11.814821.00,-9.21,-1.60,-4.76,0.09,-0.01,-0.18,-17.35,-13.24,-11.814832.00,-9.21,-1.60,-4.76,0.09,-0.01,-0.18,-17.35,-13.24,-11.814845.00,-9.51,-2.96,-2.92,0.26,0.24,-0.45,-17.35,-13.24,-11.814856.00,-9.51,-2.96,-2.92,0.26,0.24,-0.45,-17.35,-13.24,-11.814868.00,-7.76,-3.13,-4.97,-0.03,0.45,-0.50,-17.35,-13.24,-11.814880.00,-6.93,-2.75,-6.12,-0.10,0.27,-0.38,-15.28,-13.58,-12.754893.00,-6.93,-2.75,-6.12,-0.10,0.27,-0.38,-15.28,-13.58,-12.754905.00,-7.13,-2.99,-6.26,-0.01,0.02,-0.23,-15.28,-13.58,-12.754917.00,-7.13,-2.99,-6.26,-0.01,0.02,-0.23,-15.28,-13.58,-12.754928.00,-7.63,-2.91,-5.53,0.07,-0.17,-0.11,-15.28,-13.58,-12.754942.00,-8.75,-2.90,-4.36,0.12,-0.24,-0.06,-15.28,-13.58,-12.754954.00,-8.75,-2.90,-4.36,0.12,-0.24,-0.06,-15.28,-13.58,-12.754965.00,-8.54,-3.01,-4.22,0.03,-0.14,-0.02,-15.28,-13.58,-12.754977.00,-8.54,-3.01,-4.22,0.03,-0.14,-0.02,-15.28,-13.58,-12.754991.00,-8.81,-2.82,-4.44,-0.06,-0.07,0.02,-15.28,-13.58,-12.755003.00,-8.39,-2.75,-4.91,-0.18,-0.06,0.00,-15.28,-13.58,-12.755015.00,-8.39,-2.75,-4.91,-0.18,-0.06,0.00,-15.28,-13.58,-12.755027.00,-7.87,-2.75,-5.18,-0.20,-0.09,-0.00,-17.56,-12.73,-13.535040.00,-7.69,-3.06,-5.03,-0.06,-0.14,0.01,-17.56,-12.73,-13.535050.00,-7.69,-3.06,-5.03,-0.06,-0.14,0.01,-17.56,-12.73,-13.535062.00,-7.74,-3.23,-4.74,0.06,-0.19,0.06,-17.56,-12.73,-13.535074.00,-7.74,-3.23,-4.74,0.06,-0.19,0.06,-17.56,-12.73,-13.535087.00,-8.39,-2.93,-4.59,0.08,-0.22,0.13,-17.56,-12.73,-13.535099.00,-8.63,-2.56,-4.52,0.10,-0.21,0.12,-17.56,-12.73,-13.535111.00,-8.63,-2.56,-4.52,0.10,-0.21,0.12,-17.56,-12.73,-13.535122.00,-8.07,-2.85,-4.74,0.09,-0.20,0.08,-17.56,-12.73,-13.535126.00,-8.07,-2.85,-4.74,0.09,-0.20,0.08,-17.56,-12.73,-13.535205.00,-8.74,-2.52,-4.56,-0.20,0.03,0.30,-15.70,-12.22,-13.375283.00,-9.29,-0.52,-5.09,-0.17,0.02,-0.05,-17.14,-11.71,-12.285362.00,-5.54,-4.20,-7.06,0.40,-0.31,-0.38,-17.14,-11.71,-12.285451.00,-9.68,-0.42,-5.60,-0.45,0.08,0.25,-17.14,-14.09,-11.975463.00,-12.96,0.81,-4.31,-0.15,-0.15,-0.06,-17.14,-14.09,-11.975474.00,-12.96,0.81,-4.31,-0.15,-0.15,-0.06,-17.14,-14.09,-11.975486.00,-11.65,-2.69,-2.52,0.17,0.50,-0.73,-17.14,-14.09,-11.975500.00,-6.64,-2.61,-3.78,-0.08,0.96,-0.77,-16.94,-12.90,-13.065512.00,-6.64,-2.61,-3.78,-0.08,0.96,-0.77,-16.94,-12.90,-13.065522.00,-8.76,-2.40,-2.55,0.11,0.21,-0.51,-16.94,-12.90,-13.065534.00,-8.76,-2.40,-2.55,0.11,0.21,-0.51,-16.94,-12.90,-13.065548.00,-6.67,-4.05,-4.92,0.25,-0.08,-0.38,-16.94,-12.90,-13.065559.00,-4.42,-3.88,-6.12,0.78,0.04,-0.14,-16.94,-12.90,-13.065571.00,-4.42,-3.88,-6.12,0.78,0.04,-0.14,-16.94,-12.90,-13.065583.00,-1.23,-4.78,-6.59,1.42,0.45,0.17,-16.94,-12.90,-13.065595.00,-1.23,-4.78,-6.59,1.42,0.45,0.17,-16.94,-12.90,-13.065607.00,-3.58,-4.06,-10.36,1.90,0.70,0.71,-16.94,-12.90,-13.065619.00,-13.16,-1.45,-6.90,2.28,-0.19,0.72,-16.94,-12.90,-13.065631.00,-13.16,-1.45,-6.90,2.28,-0.19,0.72,-16.94,-12.90,-13.065645.00,-10.18,-5.99,0.53,2.30,-0.40,-0.18,-15.90,-17.83,-11.975657.00,-10.18,-5.99,0.53,2.30,-0.40,-0.18,-15.90,-17.83,-11.975668.00,-8.78,-5.61,1.16,0.96,0.07,-0.15,-15.90,-17.83,-11.975679.00,-9.51,-3.18,-3.97,-0.48,0.33,0.18,-15.90,-17.83,-11.975693.00,-9.51,-3.18,-3.97,-0.48,0.33,0.18,-15.90,-17.83,-11.975705.00,-8.71,-2.75,-5.51,-0.75,0.16,0.05,-15.90,-17.83,-11.975716.00,-8.71,-2.75,-5.51,-0.75,0.16,0.05,-15.90,-17.83,-11.975728.00,-7.98,-3.25,-5.19,-0.64,-0.04,-0.07,-15.90,-17.83,-11.975741.00,-7.93,-2.92,-5.52,-0.59,-0.12,-0.06,-15.90,-17.83,-11.975752.00,-7.93,-2.92,-5.52,-0.59,-0.12,-0.06,-15.90,-17.83,-11.975764.00,-7.87,-3.78,-4.79,-0.40,-0.22,-0.06,-15.90,-18.17,-11.345776.00,-7.87,-3.78,-4.79,-0.40,-0.22,-0.06,-15.90,-18.17,-11.345789.00,-8.31,-3.38,-4.89,-0.34,-0.28,-0.00,-15.90,-18.17,-11.345801.00,-8.03,-3.68,-4.29,-0.17,-0.31,-0.04,-15.90,-18.17,-11.345812.00,-8.03,-3.68,-4.29,-0.17,-0.31,-0.04,-15.90,-18.17,-11.345825.00,-7.36,-4.31,-4.27,-0.09,-0.40,0.02,-15.90,-18.17,-11.345837.00,-7.36,-4.31,-4.27,-0.09,-0.40,0.02,-15.90,-18.17,-11.345849.00,-8.40,-3.57,-4.91,-0.08,-0.46,0.19,-15.90,-18.17,-11.345859.00,-8.65,-4.30,-3.84,-0.05,-0.37,0.07,-15.90,-18.17,-11.345873.00,-8.65,-4.30,-3.84,-0.05,-0.37,0.07,-15.90,-18.17,-11.345885.00,-8.34,-2.82,-4.81,-0.19,-0.14,0.06,-17.56,-18.17,-10.405896.00,-8.34,-2.82,-4.81,-0.19,-0.14,0.06,-17.56,-18.17,-10.405907.00,-8.36,-3.89,-4.28,-0.00,-0.07,0.09,-17.56,-18.17,-10.405920.00,-8.82,-2.75,-4.20,-0.10,0.08,0.29,-17.56,-18.17,-10.405931.00,-8.82,-2.75,-4.20,-0.10,0.08,0.29,-17.56,-18.17,-10.405943.00,-8.55,-4.21,-2.32,-0.00,0.07,0.26,-17.56,-18.17,-10.405954.00,-8.55,-4.21,-2.32,-0.00,0.07,0.26,-17.56,-18.17,-10.405967.00,-8.84,-3.38,-2.89,-0.26,0.17,0.34,-17.56,-18.17,-10.405979.00,-8.43,-3.27,-4.35,-0.58,0.12,0.31,-17.56,-18.17,-10.405991.00,-8.43,-3.27,-4.35,-0.58,0.12,0.31,-17.56,-18.17,-10.406003.00,-8.23,-1.89,-5.69,-0.64,-0.04,0.16,-16.73,-14.77,-11.656016.00,-8.23,-1.89,-5.69,-0.64,-0.04,0.16,-16.73,-14.77,-11.656028.00,-8.09,-1.88,-6.33,-0.33,-0.22,-0.17,-16.73,-14.77,-11.656040.00,-7.97,-2.65,-5.57,0.11,-0.38,-0.40,-16.73,-14.77,-11.656051.00,-7.97,-2.65,-5.57,0.11,-0.38,-0.40,-16.73,-14.77,-11.656064.00,-8.25,-3.70,-4.05,0.33,-0.35,-0.39,-16.73,-14.77,-11.656075.00,-8.25,-3.70,-4.05,0.33,-0.35,-0.39,-16.73,-14.77,-11.656088.00,-8.43,-3.55,-3.33,0.23,-0.21,-0.21,-16.73,-14.77,-11.656099.00,-8.64,-4.11,-2.77,0.09,-0.05,-0.06,-16.73,-14.77,-11.656112.00,-8.64,-4.11,-2.77,0.09,-0.05,-0.06,-16.73,-14.77,-11.656124.00,-8.85,-4.13,-3.23,-0.24,0.10,0.14,-16.73,-14.77,-11.656136.00,-8.85,-4.13,-3.23,-0.24,0.10,0.14,-16.73,-14.77,-11.656147.00,-9.03,-2.78,-4.07,-0.64,0.16,0.35,-18.18,-16.30,-10.876161.00,-8.85,-3.58,-3.57,-0.77,0.05,0.32,-18.18,-16.30,-10.876173.00,-8.85,-3.58,-3.57,-0.77,0.05,0.32,-18.18,-16.30,-10.876183.00,-8.24,-2.28,-5.63,-0.80,-0.03,0.25,-18.18,-16.30,-10.876195.00,-8.24,-2.28,-5.63,-0.80,-0.03,0.25,-18.18,-16.30,-10.876209.00,-7.44,-1.97,-7.28,-0.34,-0.14,0.02,-18.18,-16.30,-10.876221.00,-7.82,-2.66,-5.89,0.32,-0.24,-0.14,-18.18,-16.30,-10.876232.00,-7.82,-2.66,-5.89,0.32,-0.24,-0.14,-18.18,-16.30,-10.876243.00,-7.99,-3.45,-4.26,0.59,-0.25,-0.16,-18.18,-16.30,-10.876257.00,-7.99,-3.45,-4.26,0.59,-0.25,-0.16,-18.18,-16.30,-10.876269.00,-8.97,-3.55,-2.89,0.55,-0.13,-0.04,-18.59,-16.30,-10.566280.00,-9.03,-4.03,-1.52,0.22,-0.01,0.07,-18.59,-16.30,-10.566291.00,-9.03,-4.03,-1.52,0.22,-0.01,0.07,-18.59,-16.30,-10.566305.00,-9.20,-3.52,-2.90,-0.23,0.21,0.22,-18.59,-16.30,-10.566317.00,-9.20,-3.52,-2.90,-0.23,0.21,0.22,-18.59,-16.30,-10.566328.00,-9.41,-1.35,-5.26,-0.61,0.18,0.25,-18.59,-16.30,-10.566340.00,-9.79,-1.09,-5.08,-0.21,-0.15,-0.16,-18.59,-16.30,-10.566353.00,-9.79,-1.09,-5.08,-0.21,-0.15,-0.16,-18.59,-16.30,-10.566364.00,-8.05,-4.22,-3.84,0.20,-0.00,-0.72,-18.59,-16.30,-10.566375.00,-8.05,-4.22,-3.84,0.20,-0.00,-0.72,-18.59,-16.30,-10.566386.00,-5.30,-3.34,-7.36,0.16,0.14,-0.69,-18.18,-15.96,-11.816399.00,-5.15,-4.70,-7.26,0.62,-0.34,-0.48,-18.18,-15.96,-11.816411.00,-5.15,-4.70,-7.26,0.62,-0.34,-0.48,-18.18,-15.96,-11.816423.00,-7.48,-4.42,-4.83,0.81,-0.72,-0.03,-18.18,-15.96,-11.816434.00,-7.48,-4.42,-4.83,0.81,-0.72,-0.03,-18.18,-15.96,-11.816448.00,-10.43,-4.06,-0.31,0.61,-0.59,0.17,-18.18,-15.96,-11.816460.00,-9.51,-2.72,-1.38,-0.07,-0.04,0.15,-18.18,-15.96,-11.816470.00,-9.51,-2.72,-1.38,-0.07,-0.04,0.15,-18.18,-15.96,-11.816482.00,-8.83,-3.03,-4.32,-0.39,0.15,0.15,-18.18,-15.96,-11.816495.00,-8.83,-3.03,-4.32,-0.39,0.15,0.15,-18.18,-15.96,-11.816505.00,-8.75,-2.67,-5.62,-0.37,0.03,0.16,-17.76,-15.96,-10.256517.00,-8.75,-2.67,-5.62,-0.37,0.03,0.16,-17.76,-15.96,-10.256529.00,-8.78,-3.40,-4.07,-0.11,0.06,0.04,-17.76,-15.96,-10.256543.00,-6.94,-3.85,-4.33,-0.12,0.13,0.02,-17.76,-15.96,-10.256554.00,-6.94,-3.85,-4.33,-0.12,0.13,0.02,-17.76,-15.96,-10.256565.00,-6.59,-4.14,-4.74,-0.01,-0.01,0.15,-17.76,-15.96,-10.256577.00,-6.59,-4.14,-4.74,-0.01,-0.01,0.15,-17.76,-15.96,-10.256591.00,-8.28,-4.03,-4.45,0.13,-0.24,0.34,-17.76,-15.96,-10.256602.00,-9.53,-3.68,-2.36,0.09,-0.25,0.33,-17.76,-15.96,-10.256614.00,-9.53,-3.68,-2.36,0.09,-0.25,0.33,-17.76,-15.96,-10.256626.00,-9.01,-2.72,-3.34,-0.17,0.02,0.24,-17.76,-15.96,-10.256639.00,-8.71,-2.26,-4.29,-0.23,-0.02,0.07,-19.83,-15.62,-11.186651.00,-8.71,-2.26,-4.29,-0.23,-0.02,0.07,-19.83,-15.62,-11.186663.00,-8.25,-2.69,-5.61,-0.19,-0.05,-0.03,-19.83,-15.62,-11.186674.00,-8.25,-2.69,-5.61,-0.19,-0.05,-0.03,-19.83,-15.62,-11.186688.00,-8.22,-2.10,-5.28,0.04,-0.16,-0.13,-19.83,-15.62,-11.186700.00,-8.42,-3.51,-3.59,0.45,-0.20,-0.28,-19.83,-15.62,-11.186712.00,-8.42,-3.51,-3.59,0.45,-0.20,-0.28,-19.83,-15.62,-11.186723.00,-8.65,-3.46,-4.40,0.42,-0.03,-0.22,-19.83,-15.62,-11.186736.00,-8.65,-3.46,-4.40,0.42,-0.03,-0.22,-19.83,-15.62,-11.186748.00,-8.49,-4.74,-2.39,0.34,0.05,-0.10,-19.83,-15.62,-11.186760.00,-8.84,-3.70,-3.46,-0.18,0.23,0.23,-18.80,-15.79,-11.656771.00,-8.84,-3.70,-3.46,-0.18,0.23,0.23,-18.80,-15.79,-11.656784.00,-8.96,-3.58,-2.73,-0.51,0.16,0.35,-18.80,-15.79,-11.656794.00,-8.96,-3.58,-2.73,-0.51,0.16,0.35,-18.80,-15.79,-11.656806.00,-8.78,-3.30,-3.31,-0.70,0.14,0.40,-18.80,-15.79,-11.656817.00,-8.78,-3.30,-3.31,-0.70,0.14,0.40,-18.80,-15.79,-11.656829.00,-8.96,-2.17,-4.92,-0.72,0.06,0.35,-18.80,-15.79,-11.656841.00,-8.62,-2.05,-4.47,-0.46,-0.22,0.04,-18.80,-15.79,-11.656853.00,-8.62,-2.05,-4.47,-0.46,-0.22,0.04,-18.80,-15.79,-11.656865.00,-8.27,-2.22,-5.58,-0.31,-0.32,-0.19,-18.80,-15.79,-11.656878.00,-8.27,-2.22,-5.58,-0.31,-0.32,-0.19,-18.80,-15.79,-11.656890.00,-8.17,-2.75,-5.15,-0.08,-0.26,-0.17,-19.00,-14.26,-11.186902.00,-8.35,-3.83,-3.26,0.10,-0.19,-0.04,-19.00,-14.26,-11.186915.00,-8.35,-3.83,-3.26,0.10,-0.19,-0.04,-19.00,-14.26,-11.186926.00,-8.81,-2.94,-4.13,-0.03,0.08,0.21,-19.00,-14.26,-11.186937.00,-8.81,-2.94,-4.13,-0.03,0.08,0.21,-19.00,-14.26,-11.186948.00,-8.74,-3.89,-2.50,-0.12,0.07,0.19,-19.00,-14.26,-11.186961.00,-8.89,-3.02,-3.74,-0.32,0.03,0.13,-19.00,-14.26,-11.186972.00,-8.89,-3.02,-3.74,-0.32,0.03,0.13,-19.00,-14.26,-11.186983.00,-8.95,-1.23,-4.61,-0.43,-0.11,-0.00,-19.00,-14.26,-11.186995.00,-8.95,-1.23,-4.61,-0.43,-0.11,-0.00,-19.00,-14.26,-11.187008.00,-8.76,-2.76,-4.05,-0.28,-0.31,-0.25,-19.42,-14.94,-11.187019.00,-8.76,-2.76,-4.05,-0.28,-0.31,-0.25,-19.42,-14.94,-11.187030.00,-8.25,-2.43,-5.23,-0.31,-0.28,-0.21,-19.42,-14.94,-11.187042.00,-8.36,-3.37,-4.15,-0.14,-0.21,-0.10,-19.42,-14.94,-11.187054.00,-8.36,-3.37,-4.15,-0.14,-0.21,-0.10,-19.42,-14.94,-11.187066.00,-8.72,-3.12,-3.76,-0.12,-0.00,0.15,-19.42,-14.94,-11.187078.00,-8.72,-3.12,-3.76,-0.12,-0.00,0.15,-19.42,-14.94,-11.187090.00,-9.09,-2.74,-3.75,-0.16,0.16,0.32,-19.42,-14.94,-11.187105.00,-9.68,-1.92,-3.90,-0.28,0.19,0.36,-19.42,-14.94,-11.187117.00,-9.68,-1.92,-3.90,-0.28,0.19,0.36,-19.42,-14.94,-11.187129.00,-12.79,0.95,-3.77,-0.24,0.03,0.05,-19.42,-14.94,-11.187141.00,-10.67,-2.06,-1.93,-0.21,0.09,-0.89,-19.83,-13.92,-10.877154.00,-10.67,-2.06,-1.93,-0.21,0.09,-0.89,-19.83,-13.92,-10.877166.00,-9.35,-1.63,-4.59,-0.57,0.26,-1.11,-19.83,-13.92,-10.877178.00,-9.35,-1.63,-4.59,-0.57,0.26,-1.11,-19.83,-13.92,-10.877189.00,-6.90,-3.10,-5.18,-0.44,-0.01,-1.20,-19.83,-13.92,-10.877203.00,-5.91,-3.19,-4.21,-0.10,-0.33,-1.21,-19.83,-13.92,-10.877215.00,-5.91,-3.19,-4.21,-0.10,-0.33,-1.21,-19.83,-13.92,-10.877226.00,-5.95,-5.09,-1.93,0.11,-0.38,-0.95,-19.83,-13.92,-10.877237.00,-5.95,-5.09,-1.93,0.11,-0.38,-0.95,-19.83,-13.92,-10.877251.00,-5.26,-4.42,-6.69,-0.09,0.14,-0.37,-19.83,-13.92,-10.877263.00,-4.48,-5.03,-8.50,0.18,0.46,0.11,-17.14,-14.09,-11.347274.00,-4.48,-5.03,-8.50,0.18,0.46,0.11,-17.14,-14.09,-11.347286.00,-7.68,-3.93,-9.83,0.74,0.44,0.43,-17.14,-14.09,-11.347300.00,-8.93,-3.38,-4.13,1.21,-0.07,0.25,-17.14,-14.09,-11.347312.00,-8.93,-3.38,-4.13,1.21,-0.07,0.25,-17.14,-14.09,-11.347323.00,-9.89,-4.65,-0.42,1.17,-0.21,0.09,-17.14,-14.09,-11.347334.00,-9.89,-4.65,-0.42,1.17,-0.21,0.09,-17.14,-14.09,-11.347348.00,-10.49,-3.47,-0.98,0.45,0.03,0.19,-17.14,-14.09,-11.347360.00,-8.79,-3.07,-3.54,-0.09,0.24,0.13,-17.14,-14.09,-11.347370.00,-8.79,-3.07,-3.54,-0.09,0.24,0.13,-17.14,-14.09,-11.347381.00,-8.18,-2.98,-5.66,-0.24,0.23,0.10,-17.97,-15.45,-12.287395.00,-8.18,-2.98,-5.66,-0.24,0.23,0.10,-17.97,-15.45,-12.287407.00,-7.93,-2.74,-5.79,-0.09,0.03,0.03,-17.97,-15.45,-12.287418.00,-7.93,-2.74,-5.79,-0.09,0.03,0.03,-17.97,-15.45,-12.287430.00,-8.26,-3.71,-4.00,0.14,-0.20,-0.07,-17.97,-15.45,-12.287443.00,-8.03,-3.94,-4.01,0.06,-0.30,-0.06,-17.97,-15.45,-12.287455.00,-8.03,-3.94,-4.01,0.06,-0.30,-0.06,-17.97,-15.45,-12.287467.00,-7.57,-3.87,-4.70,0.03,-0.38,-0.04,-17.97,-15.45,-12.287478.00,-7.57,-3.87,-4.70,0.03,-0.38,-0.04,-17.97,-15.45,-12.287491.00,-7.82,-3.79,-4.64,0.08,-0.50,0.02,-17.97,-15.45,-12.287503.00,-9.95,-4.06,-1.83,0.05,-0.51,0.01,-18.80,-16.47,-10.717515.00,-9.95,-4.06,-1.83,0.05,-0.51,0.01,-18.80,-16.47,-10.717526.00,-8.57,-2.67,-4.29,-0.39,-0.08,0.06,-18.80,-16.47,-10.717538.00,-8.57,-2.67,-4.29,-0.39,-0.08,0.06,-18.80,-16.47,-10.717550.00,-8.33,-4.03,-5.01,-0.21,0.07,0.16,-18.80,-16.47,-10.717562.00,-8.26,-4.12,-4.65,-0.12,0.24,0.55,-18.80,-16.47,-10.717574.00,-8.26,-4.12,-4.65,-0.12,0.24,0.55,-18.80,-16.47,-10.717579.00,-8.26,-4.12,-4.65,-0.12,0.24,0.55,-18.80,-16.47,-10.717656.00,-8.99,-2.00,-4.70,-0.20,0.16,0.18,-16.52,-13.92,-10.877736.00,-7.38,-3.81,-5.78,0.59,-0.62,-0.10,-16.52,-13.92,-10.877813.00,-9.55,-0.86,-4.36,-0.54,-0.08,0.34,-17.56,-16.13,-11.347904.00,-5.11,-2.80,-7.43,0.79,0.26,-0.02,-17.14,-16.47,-10.407916.00,-5.11,-2.80,-7.43,0.79,0.26,-0.02,-17.14,-16.47,-10.407927.00,-5.33,-5.91,-5.70,1.35,0.14,0.02,-17.14,-16.47,-10.407939.00,-5.33,-5.91,-5.70,1.35,0.14,0.02,-17.14,-16.47,-10.407952.00,-8.57,-3.93,-6.96,1.18,0.11,0.30,-17.14,-16.47,-10.407962.00,-9.08,-4.25,-2.74,1.05,-0.16,0.10,-17.14,-16.47,-10.407974.00,-9.08,-4.25,-2.74,1.05,-0.16,0.10,-17.14,-16.47,-10.407986.00,-9.69,-4.15,-1.26,0.53,-0.15,-0.08,-17.14,-16.47,-10.407999.00,-9.69,-4.15,-1.26,0.53,-0.15,-0.08,-17.14,-16.47,-10.408011.00,-9.48,-3.86,-2.05,-0.20,-0.08,-0.12,-17.97,-18.51,-11.038022.00,-8.56,-3.48,-3.93,-0.61,0.02,-0.12,-17.97,-18.51,-11.038033.00,-8.56,-3.48,-3.93,-0.61,0.02,-0.12,-17.97,-18.51,-11.038046.00,-8.34,-3.13,-5.02,-0.53,0.01,-0.08,-17.97,-18.51,-11.038056.00,-8.34,-3.13,-5.02,-0.53,0.01,-0.08,-17.97,-18.51,-11.038067.00,-8.58,-3.36,-4.27,-0.25,-0.06,-0.07,-17.97,-18.51,-11.038079.00,-8.58,-3.36,-4.27,-0.25,-0.06,-0.07,-17.97,-18.51,-11.038093.00,-8.81,-3.37,-3.88,-0.19,-0.08,-0.08,-17.97,-18.51,-11.038104.00,-8.37,-3.94,-3.61,-0.25,-0.07,-0.12,-17.97,-18.51,-11.038114.00,-8.37,-3.94,-3.61,-0.25,-0.07,-0.12,-17.97,-18.51,-11.038126.00,-8.05,-3.81,-4.32,-0.35,-0.06,-0.11,-17.97,-18.51,-11.038140.00,-7.97,-3.82,-4.59,-0.31,-0.10,-0.14,-15.49,-18.17,-10.098152.00,-7.97,-3.82,-4.59,-0.31,-0.10,-0.14,-15.49,-18.17,-10.098164.00,-7.40,-3.84,-5.02,-0.26,-0.19,-0.14,-15.49,-18.17,-10.098176.00,-7.40,-3.84,-5.02,-0.26,-0.19,-0.14,-15.49,-18.17,-10.098189.00,-7.22,-3.47,-5.25,-0.16,-0.38,-0.09,-15.49,-18.17,-10.098201.00,-9.19,-3.72,-3.45,0.04,-0.58,-0.05,-15.49,-18.17,-10.098213.00,-9.19,-3.72,-3.45,0.04,-0.58,-0.05,-15.49,-18.17,-10.098226.00,-8.78,-4.47,-2.51,-0.17,-0.32,-0.06,-15.49,-18.17,-10.098237.00,-8.78,-4.47,-2.51,-0.17,-0.32,-0.06,-15.49,-18.17,-10.098249.00,-8.26,-2.74,-5.34,-0.44,-0.04,0.05,-15.49,-18.17,-10.098261.00,-7.94,-3.30,-5.10,-0.02,-0.04,0.04,-18.18,-16.98,-11.188274.00,-7.94,-3.30,-5.10,-0.02,-0.04,0.04,-18.18,-16.98,-11.188285.00,-8.26,-4.36,-3.78,0.15,0.12,0.25,-18.18,-16.98,-11.188297.00,-8.26,-4.36,-3.78,0.15,0.12,0.25,-18.18,-16.98,-11.188309.00,-9.08,-3.46,-2.39,-0.02,0.28,0.61,-18.18,-16.98,-11.188324.00,-9.23,-2.17,-2.60,-0.13,0.33,0.63,-18.18,-16.98,-11.188336.00,-9.23,-2.17,-2.60,-0.13,0.33,0.63,-18.18,-16.98,-11.188346.00,-8.78,-4.75,-1.84,-0.25,0.27,0.40,-18.18,-16.98,-11.188358.00,-8.78,-4.75,-1.84,-0.25,0.27,0.40,-18.18,-16.98,-11.188372.00,-9.26,-2.04,-5.11,-0.67,0.28,0.37,-18.18,-16.98,-11.188384.00,-8.96,-1.20,-5.55,-0.42,-0.04,-0.06,-15.70,-15.96,-11.188396.00,-8.96,-1.20,-5.55,-0.42,-0.04,-0.06,-15.70,-15.96,-11.188407.00,-8.33,-3.19,-4.71,0.02,0.03,-0.63,-15.70,-15.96,-11.188421.00,-6.35,-2.91,-6.68,0.32,0.09,-0.77,-15.70,-15.96,-11.188433.00,-6.35,-2.91,-6.68,0.32,0.09,-0.77,-15.70,-15.96,-11.188444.00,-5.68,-5.35,-5.31,0.80,-0.29,-0.70,-15.70,-15.96,-11.188456.00,-5.68,-5.35,-5.31,0.80,-0.29,-0.70,-15.70,-15.96,-11.188470.00,-7.02,-5.23,-4.30,0.68,-0.54,-0.19,-15.70,-15.96,-11.188482.00,-11.70,-3.87,-0.32,0.49,-0.60,0.22,-15.70,-15.96,-11.188493.00,-11.70,-3.87,-0.32,0.49,-0.60,0.22,-15.70,-15.96,-11.188505.00,-9.36,-3.43,-1.18,-0.11,-0.10,0.22,-16.52,-16.98,-10.258519.00,-9.36,-3.43,-1.18,-0.11,-0.10,0.22,-16.52,-16.98,-10.258531.00,-9.12,-3.88,-3.47,-0.48,0.11,0.21,-16.52,-16.98,-10.258543.00,-8.70,-2.34,-5.38,-0.63,0.02,0.25,-16.52,-16.98,-10.258554.00,-8.70,-2.34,-5.38,-0.63,0.02,0.25,-16.52,-16.98,-10.258567.00,-10.11,-2.48,-3.85,-0.31,-0.03,0.16,-16.52,-16.98,-10.258579.00,-10.11,-2.48,-3.85,-0.31,-0.03,0.16,-16.52,-16.98,-10.258591.00,-7.32,-3.41,-4.36,-0.17,0.24,-0.02,-16.52,-16.98,-10.258601.00,-6.40,-3.92,-5.71,-0.07,0.10,0.02,-16.52,-16.98,-10.258615.00,-6.40,-3.92,-5.71,-0.07,0.10,0.02,-16.52,-16.98,-10.258627.00,-6.24,-4.43,-5.88,0.20,-0.18,0.13,-16.52,-16.98,-10.258640.00,-9.37,-3.67,-3.75,0.42,-0.40,0.25,-16.94,-16.64,-10.568652.00,-9.37,-3.67,-3.75,0.42,-0.40,0.25,-16.94,-16.64,-10.568666.00,-9.13,-3.59,-1.96,0.28,-0.19,0.20,-16.94,-16.64,-10.568678.00,-9.13,-3.59,-1.96,0.28,-0.19,0.20,-16.94,-16.64,-10.568689.00,-9.31,-2.68,-3.20,0.03,0.13,0.28,-16.94,-16.64,-10.568701.00,-8.93,-3.16,-4.04,-0.05,0.14,0.26,-16.94,-16.64,-10.568714.00,-8.93,-3.16,-4.04,-0.05,0.14,0.26,-16.94,-16.64,-10.568725.00,-8.67,-1.98,-4.32,-0.24,0.09,0.32,-16.94,-16.64,-10.568737.00,-8.67,-1.98,-4.32,-0.24,0.09,0.32,-16.94,-16.64,-10.568749.00,-8.55,-4.41,-2.33,-0.29,-0.02,0.20,-16.94,-16.64,-10.568762.00,-8.55,-2.11,-5.33,-0.61,-0.01,0.23,-19.42,-15.96,-10.878774.00,-8.55,-2.11,-5.33,-0.61,-0.01,0.23,-19.42,-15.96,-10.878786.00,-8.16,-2.63,-4.61,-0.33,-0.18,0.01,-19.42,-15.96,-10.878798.00,-8.16,-2.63,-4.61,-0.33,-0.18,0.01,-19.42,-15.96,-10.878811.00,-8.38,-1.53,-5.91,0.03,-0.20,-0.12,-19.42,-15.96,-10.878822.00,-8.12,-2.86,-4.31,0.44,-0.35,-0.33,-19.42,-15.96,-10.878834.00,-8.12,-2.86,-4.31,0.44,-0.35,-0.33,-19.42,-15.96,-10.878846.00,-7.99,-3.57,-3.00,0.62,-0.31,-0.42,-19.42,-15.96,-10.878859.00,-7.99,-3.57,-3.00,0.62,-0.31,-0.42,-19.42,-15.96,-10.878871.00,-8.69,-3.92,-2.73,0.54,-0.13,-0.36,-19.42,-15.96,-10.878882.00,-8.77,-4.02,-2.26,0.25,-0.03,-0.17,-17.35,-18.00,-9.628893.00,-8.77,-4.02,-2.26,0.25,-0.03,-0.17,-17.35,-18.00,-9.628906.00,-8.46,-6.06,-2.29,-0.17,0.16,0.08,-17.35,-18.00,-9.628918.00,-8.46,-6.06,-2.29,-0.17,0.16,0.08,-17.35,-18.00,-9.628930.00,-8.92,-3.33,-3.20,-0.87,0.29,0.47,-17.35,-18.00,-9.628942.00,-9.04,-2.17,-3.27,-1.12,0.19,0.54,-17.35,-18.00,-9.628955.00,-9.04,-2.17,-3.27,-1.12,0.19,0.54,-17.35,-18.00,-9.628966.00,-8.70,-3.77,-4.00,-0.97,0.04,0.34,-17.35,-18.00,-9.628978.00,-8.70,-3.77,-4.00,-0.97,0.04,0.34,-17.35,-18.00,-9.628990.00,-8.12,-0.31,-7.39,-0.72,-0.08,0.18,-17.35,-18.00,-9.629003.00,-8.06,-3.07,-5.23,0.11,-0.22,-0.13,-19.00,-12.90,-10.879013.00,-8.06,-3.07,-5.23,0.11,-0.22,-0.13,-19.00,-12.90,-10.879025.00,-8.52,-2.37,-4.19,0.36,-0.21,-0.14,-19.00,-12.90,-10.879037.00,-8.52,-2.37,-4.19,0.36,-0.21,-0.14,-19.00,-12.90,-10.879050.00,-8.43,-3.22,-3.91,0.48,-0.15,-0.18,-19.00,-12.90,-10.879062.00,-8.57,-3.91,-3.64,0.37,-0.01,-0.07,-19.00,-12.90,-10.879074.00,-8.57,-3.91,-3.64,0.37,-0.01,-0.07,-19.00,-12.90,-10.879086.00,-8.90,-3.85,-2.41,-0.01,0.07,0.16,-19.00,-12.90,-10.879099.00,-8.90,-3.85,-2.41,-0.01,0.07,0.16,-19.00,-12.90,-10.879110.00,-8.95,-3.64,-2.71,-0.48,0.15,0.31,-19.00,-12.90,-10.879122.00,-9.00,-2.54,-3.95,-0.80,0.17,0.39,-19.00,-14.60,-10.259134.00,-9.00,-2.54,-3.95,-0.80,0.17,0.39,-19.00,-14.60,-10.259147.00,-8.94,-1.89,-3.91,-0.82,0.06,0.29,-19.00,-14.60,-10.259159.00,-8.94,-1.89,-3.91,-0.82,0.06,0.29,-19.00,-14.60,-10.259171.00,-8.58,-1.45,-5.64,-0.59,-0.11,-0.03,-19.00,-14.60,-10.259183.00,-7.90,-3.23,-5.35,-0.02,-0.24,-0.28,-19.00,-14.60,-10.259196.00,-7.90,-3.23,-5.35,-0.02,-0.24,-0.28,-19.00,-14.60,-10.259207.00,-8.29,-2.84,-4.90,0.28,-0.22,-0.26,-19.00,-14.60,-10.259219.00,-8.29,-2.84,-4.90,0.28,-0.22,-0.26,-19.00,-14.60,-10.259230.00,-8.58,-2.42,-4.16,0.34,-0.21,-0.20,-19.00,-14.60,-10.259243.00,-8.10,-5.22,-2.38,0.26,-0.09,-0.10,-19.00,-14.60,-10.259255.00,-8.10,-5.22,-2.38,0.26,-0.09,-0.10,-19.00,-14.60,-10.259267.00,-8.71,-3.11,-3.52,-0.25,0.15,0.23,-19.42,-13.58,-10.569278.00,-8.71,-3.11,-3.52,-0.25,0.15,0.23,-19.42,-13.58,-10.569282.00,-8.89,-3.18,-2.75,-0.51,0.17,0.30,-19.42,-13.58,-10.569362.00,-8.27,-1.83,-5.60,-0.20,-0.21,-0.01,-19.42,-13.58,-10.569439.00,-8.30,-2.64,-4.85,0.24,-0.16,0.08,-17.35,-14.26,-10.569519.00,-9.23,-2.35,-3.34,0.56,-0.02,-0.24,-19.00,-13.24,-10.259607.00,-9.57,-4.41,-0.36,-0.56,-0.30,-0.35,-19.00,-13.24,-10.259619.00,-9.57,-4.41,-0.36,-0.56,-0.30,-0.35,-19.00,-13.24,-10.259631.00,-6.71,-1.29,-5.71,-0.91,0.26,-0.21,-18.18,-14.94,-9.319643.00,-5.56,-2.61,-4.52,-0.28,0.26,-0.27,-18.18,-14.94,-9.319657.00,-5.56,-2.61,-4.52,-0.28,0.26,-0.27,-18.18,-14.94,-9.319668.00,-4.47,-3.63,-7.75,0.25,0.62,-0.21,-18.18,-14.94,-9.319680.00,-4.47,-3.63,-7.75,0.25,0.62,-0.21,-18.18,-14.94,-9.319692.00,-7.84,-3.50,-11.77,1.01,0.66,-0.05,-18.18,-14.94,-9.319705.00,-9.37,-4.09,-3.92,1.67,-0.06,-0.22,-18.18,-14.94,-9.319717.00,-9.37,-4.09,-3.92,1.67,-0.06,-0.22,-18.18,-14.94,-9.319729.00,-8.73,-6.16,-0.31,1.28,-0.06,-0.25,-18.18,-14.94,-9.319741.00,-8.72,-3.49,-3.10,0.10,0.07,0.08,-18.18,-14.94,-9.319753.00,-8.72,-3.49,-3.10,0.10,0.07,0.08,-18.18,-14.94,-9.319765.00,-7.77,-3.38,-5.37,-0.11,0.03,0.06,-15.90,-16.47,-11.659777.00,-7.77,-3.38,-5.37,-0.11,0.03,0.06,-15.90,-16.47,-11.659789.00,-6.62,-3.88,-5.65,0.07,-0.13,0.11,-15.90,-16.47,-11.659802.00,-7.89,-3.07,-5.31,0.19,-0.43,0.37,-15.90,-16.47,-11.659814.00,-7.89,-3.07,-5.31,0.19,-0.43,0.37,-15.90,-16.47,-11.659825.00,-13.29,-2.24,-2.38,0.25,-0.68,0.38,-15.90,-16.47,-11.659837.00,-13.29,-2.24,-2.38,0.25,-0.68,0.38,-15.90,-16.47,-11.659850.00,-9.06,-3.91,-2.04,-0.02,-0.37,0.09,-15.90,-16.47,-11.659862.00,-8.95,-3.26,-3.61,-0.25,-0.19,0.15,-15.90,-16.47,-11.659874.00,-8.95,-3.26,-3.61,-0.25,-0.19,0.15,-15.90,-16.47,-11.659884.00,-8.75,-3.46,-3.17,-0.24,-0.22,0.15,-17.35,-16.30,-10.879898.00,-8.75,-3.46,-3.17,-0.24,-0.22,0.15,-17.35,-16.30,-10.879910.00,-8.92,-2.59,-4.16,-0.50,-0.20,0.10,-17.35,-16.30,-10.879921.00,-8.62,-3.07,-3.19,-0.48,-0.43,-0.20,-17.35,-16.30,-10.879933.00,-8.62,-3.07,-3.19,-0.48,-0.43,-0.20,-17.35,-16.30,-10.879946.00,-8.06,-2.18,-6.43,-0.28,-0.46,-0.40,-17.35,-16.30,-10.879958.00,-8.06,-2.18,-6.43,-0.28,-0.46,-0.40,-17.35,-16.30,-10.879971.00,-7.63,-2.94,-4.91,0.56,-0.54,-0.61,-17.35,-16.30,-10.879985.00,-7.42,-2.50,-5.34,1.15,-0.44,-0.76,-17.35,-16.30,-10.879997.00,-7.42,-2.50,-5.34,1.15,-0.44,-0.76,-17.35,-16.30,-10.8710007.00,-8.41,-5.46,-1.91,1.27,-0.29,-0.72,-19.62,-18.17,-9.4610019.00,-8.41,-5.46,-1.91,1.27,-0.29,-0.72,-19.62,-18.17,-9.4610033.00,-9.00,-5.53,-1.28,0.52,0.12,-0.21,-19.62,-18.17,-9.4610044.00,-8.66,-5.69,-1.48,-0.30,0.47,0.35,-19.62,-18.17,-9.4610055.00,-8.66,-5.69,-1.48,-0.30,0.47,0.35,-19.62,-18.17,-9.4610067.00,-8.96,-3.98,-2.60,-0.76,0.62,0.79,-19.62,-18.17,-9.4610080.00,-8.96,-3.98,-2.60,-0.76,0.62,0.79,-19.62,-18.17,-9.4610092.00,-9.16,-1.02,-5.23,-0.93,0.55,0.92,-19.62,-18.17,-9.4610104.00,-8.87,-2.82,-3.78,-0.71,0.28,0.63,-19.62,-18.17,-9.4610116.00,-8.87,-2.82,-3.78,-0.71,0.28,0.63,-19.62,-18.17,-9.4610130.00,-9.91,-0.95,-4.40,-0.53,0.10,0.34,-17.14,-15.79,-10.4010140.00,-8.48,-2.84,-3.86,-0.30,0.02,-0.24,-17.14,-15.79,-10.4010151.00,-8.48,-2.84,-3.86,-0.30,0.02,-0.24,-17.14,-15.79,-10.4010163.00,-6.91,-4.09,-5.00,-0.30,0.02,-0.35,-17.14,-15.79,-10.4010177.00,-6.91,-4.09,-5.00,-0.30,0.02,-0.35,-17.14,-15.79,-10.4010189.00,-6.27,-4.25,-5.98,-0.21,-0.10,-0.11,-17.14,-15.79,-10.4010200.00,-6.27,-4.25,-5.98,-0.21,-0.10,-0.11,-17.14,-15.79,-10.4010212.00,-7.18,-3.37,-6.04,0.03,-0.30,0.12,-17.14,-15.79,-10.4010225.00,-9.45,-3.72,-2.53,0.28,-0.38,0.10,-17.14,-15.79,-10.4010236.00,-9.45,-3.72,-2.53,0.28,-0.38,0.10,-17.14,-15.79,-10.4010247.00,-9.11,-2.68,-2.79,0.07,-0.06,0.09,-17.14,-15.79,-10.4010258.00,-9.11,-2.68,-2.79,0.07,-0.06,0.09,-17.14,-15.79,-10.4010262.00,-8.60,-3.21,-4.02,-0.08,0.07,0.09,-16.94,-16.30,-10.8710341.00,-8.54,-3.60,-3.75,-0.10,-0.02,0.01,-16.94,-16.30,-10.8710419.00,-8.71,-3.05,-3.64,-0.21,-0.08,0.14,-18.38,-15.45,-9.7810498.00,-8.06,-3.12,-3.39,0.66,-0.24,-0.37,-18.38,-15.45,-9.7810588.00,-9.15,-2.21,-4.44,-0.60,0.21,0.51,-18.80,-16.81,-10.4010600.00,-9.15,-2.21,-4.44,-0.60,0.21,0.51,-18.80,-16.81,-10.4010611.00,-9.09,-2.03,-3.82,-0.63,0.00,0.44,-18.80,-16.81,-10.4010623.00,-8.96,-0.60,-4.71,-0.63,-0.26,0.18,-19.21,-16.13,-11.6510636.00,-8.96,-0.60,-4.71,-0.63,-0.26,0.18,-19.21,-16.13,-11.6510646.00,-8.22,-2.76,-4.97,-0.29,-0.48,-0.16,-19.21,-16.13,-11.6510658.00,-8.22,-2.76,-4.97,-0.29,-0.48,-0.16,-19.21,-16.13,-11.6510670.00,-7.87,-2.41,-6.14,0.05,-0.41,-0.10,-19.21,-16.13,-11.6510683.00,-8.15,-3.46,-4.30,0.48,-0.41,-0.11,-19.21,-16.13,-11.6510695.00,-8.15,-3.46,-4.30,0.48,-0.41,-0.11,-19.21,-16.13,-11.6510707.00,-8.16,-2.74,-3.45,0.63,-0.24,-0.04,-19.21,-16.13,-11.6510718.00,-8.16,-2.74,-3.45,0.63,-0.24,-0.04,-19.21,-16.13,-11.6510731.00,-8.67,-3.06,-3.68,0.71,-0.04,-0.12,-19.21,-16.13,-11.6510743.00,-9.25,-3.21,-2.93,0.67,-0.03,-0.23,-19.21,-16.13,-11.6510755.00,-9.25,-3.21,-2.93,0.67,-0.03,-0.23,-19.21,-16.13,-11.6510769.00,-9.48,-2.55,-2.72,0.41,0.02,-0.32,-19.21,-16.47,-9.7810780.00,-9.48,-2.55,-2.72,0.41,0.02,-0.32,-19.21,-16.47,-9.7810792.00,-12.69,-2.61,-1.30,0.24,-0.03,-0.53,-19.21,-16.47,-9.7810804.00,-10.21,-4.36,-0.84,-0.30,0.36,-0.67,-19.21,-16.47,-9.7810817.00,-10.21,-4.36,-0.84,-0.30,0.36,-0.67,-19.21,-16.47,-9.7810828.00,-7.60,-2.29,-4.05,-0.96,0.46,-0.36,-19.21,-16.47,-9.7810840.00,-7.60,-2.29,-4.05,-0.96,0.46,-0.36,-19.21,-16.47,-9.7810852.00,-8.72,-1.42,-3.13,-0.60,-0.14,-0.24,-19.21,-16.47,-9.7810865.00,-7.86,-3.84,-2.27,-0.26,-0.29,-0.25,-19.21,-16.47,-9.7810876.00,-7.86,-3.84,-2.27,-0.26,-0.29,-0.25,-19.21,-16.47,-9.7810888.00,-6.70,-3.42,-6.03,-0.37,0.01,-0.04,-16.73,-14.77,-10.4010900.00,-6.70,-3.42,-6.03,-0.37,0.01,-0.04,-16.73,-14.77,-10.4010914.00,-5.92,-3.83,-6.79,0.08,0.17,0.00,-16.73,-14.77,-10.4010926.00,-6.50,-4.44,-9.30,0.67,0.44,-0.07,-16.73,-14.77,-10.4010938.00,-6.50,-4.44,-9.30,0.67,0.44,-0.07,-16.73,-14.77,-10.4010950.00,-6.82,-5.22,-7.02,1.21,0.29,-0.17,-16.73,-14.77,-10.4010963.00,-8.56,-5.84,-1.84,1.19,-0.01,-0.11,-16.73,-14.77,-10.4010975.00,-8.56,-5.84,-1.84,1.19,-0.01,-0.11,-16.73,-14.77,-10.4010987.00,-9.55,-3.99,-1.54,0.45,0.11,0.05,-16.73,-14.77,-10.4010998.00,-9.55,-3.99,-1.54,0.45,0.11,0.05,-16.73,-14.77,-10.4011011.00,-8.27,-3.49,-4.08,0.02,0.21,0.01,-17.35,-19.02,-10.5611023.00,-8.13,-3.00,-5.02,0.05,0.07,0.01,-17.35,-19.02,-10.5611034.00,-8.13,-3.00,-5.02,0.05,0.07,0.01,-17.35,-19.02,-10.5611045.00,-9.18,-2.96,-3.36,0.31,-0.10,-0.01,-17.35,-19.02,-10.5611058.00,-9.18,-2.96,-3.36,0.31,-0.10,-0.01,-17.35,-19.02,-10.5611069.00,-8.91,-3.52,-3.08,0.28,-0.05,-0.08,-17.35,-19.02,-10.5611080.00,-8.91,-3.52,-3.08,0.28,-0.05,-0.08,-17.35,-19.02,-10.5611092.00,-7.98,-4.02,-4.38,0.14,0.05,-0.10,-17.35,-19.02,-10.5611106.00,-7.97,-4.14,-4.37,0.16,0.01,-0.08,-17.35,-19.02,-10.5611116.00,-7.97,-4.14,-4.37,0.16,0.01,-0.08,-17.35,-19.02,-10.5611128.00,-8.16,-3.77,-4.31,0.21,0.01,-0.06,-17.35,-20.04,-9.3111140.00,-8.16,-3.77,-4.31,0.21,0.01,-0.06,-17.35,-20.04,-9.3111153.00,-8.19,-3.85,-4.06,0.31,-0.01,-0.08,-17.35,-20.04,-9.3111165.00,-8.46,-4.08,-3.20,0.33,-0.10,-0.10,-17.35,-20.04,-9.3111177.00,-8.46,-4.08,-3.20,0.33,-0.10,-0.10,-17.35,-20.04,-9.3111189.00,-8.20,-4.22,-3.51,0.16,-0.14,-0.08,-17.35,-20.04,-9.3111203.00,-8.16,-4.14,-3.83,0.02,-0.14,-0.03,-17.35,-20.04,-9.3111215.00,-8.16,-4.14,-3.83,0.02,-0.14,-0.03,-17.35,-20.04,-9.3111227.00,-7.82,-4.03,-4.13,-0.01,-0.16,0.01,-17.35,-20.04,-9.3111238.00,-7.82,-4.03,-4.13,-0.01,-0.16,0.01,-17.35,-20.04,-9.3111251.00,-8.27,-4.15,-4.09,0.09,-0.30,0.07,-17.35,-20.04,-9.3111263.00,-9.01,-3.36,-3.43,0.13,-0.41,0.07,-16.32,-20.55,-9.1511275.00,-9.01,-3.36,-3.43,0.13,-0.41,0.07,-16.32,-20.55,-9.1511287.00,-8.75,-4.76,-2.30,-0.03,-0.28,-0.05,-16.32,-20.55,-9.1511300.00,-8.75,-4.76,-2.30,-0.03,-0.28,-0.05,-16.32,-20.55,-9.1511312.00,-8.43,-3.78,-4.00,-0.39,-0.13,0.02,-16.32,-20.55,-9.1511324.00,-8.58,-4.05,-3.26,-0.30,-0.16,0.00,-16.32,-20.55,-9.1511336.00,-8.58,-4.05,-3.26,-0.30,-0.16,0.00,-16.32,-20.55,-9.1511350.00,-8.56,-4.36,-2.78,-0.30,-0.16,-0.02,-16.32,-20.55,-9.1511362.00,-8.71,-3.27,-4.34,-0.37,-0.06,0.03,-16.32,-20.55,-9.1511374.00,-8.71,-3.27,-4.34,-0.37,-0.06,0.03,-16.32,-20.55,-9.1511385.00,-8.22,-3.91,-3.55,-0.19,-0.10,0.09,-16.52,-18.00,-8.6811399.00,-8.22,-3.91,-3.55,-0.19,-0.10,0.09,-16.52,-18.00,-8.6811411.00,-8.00,-4.78,-3.51,-0.04,-0.04,0.15,-16.52,-18.00,-8.6811422.00,-8.18,-4.20,-3.61,0.02,0.06,0.21,-16.52,-18.00,-8.6811434.00,-8.18,-4.20,-3.61,0.02,0.06,0.21,-16.52,-18.00,-8.6811447.00,-8.34,-4.04,-3.37,0.05,0.05,0.13,-16.52,-18.00,-8.6811459.00,-8.34,-4.04,-3.37,0.05,0.05,0.13,-16.52,-18.00,-8.6811471.00,-8.43,-4.01,-3.51,-0.07,-0.00,0.05,-16.52,-18.00,-8.6811482.00,-8.68,-3.19,-3.85,-0.22,-0.06,0.00,-16.52,-18.00,-8.6811495.00,-8.68,-3.19,-3.85,-0.22,-0.06,0.00,-16.52,-18.00,-8.6811506.00,-8.82,-3.35,-3.27,-0.20,-0.22,-0.15,-17.97,-17.83,-8.8411518.00,-8.82,-3.35,-3.27,-0.20,-0.22,-0.15,-17.97,-17.83,-8.8411531.00,-8.34,-3.97,-3.90,-0.28,-0.26,-0.18,-17.97,-17.83,-8.8411542.00,-8.17,-3.91,-4.28,-0.25,-0.15,-0.07,-17.97,-17.83,-8.8411554.00,-8.17,-3.91,-4.28,-0.25,-0.15,-0.07,-17.97,-17.83,-8.8411566.00,-8.35,-4.06,-3.81,-0.02,-0.06,0.06,-17.97,-17.83,-8.8411579.00,-8.35,-4.06,-3.81,-0.02,-0.06,0.06,-17.97,-17.83,-8.8411590.00,-8.49,-2.79,-4.45,-0.02,0.11,0.28,-17.97,-17.83,-8.8411602.00,-8.55,-3.78,-3.42,0.05,0.11,0.24,-17.97,-17.83,-8.8411614.00,-8.55,-3.78,-3.42,0.05,0.11,0.24,-17.97,-17.83,-8.8411628.00,-8.45,-3.82,-3.44,-0.04,0.04,0.14,-18.18,-18.00,-8.6811640.00,-8.45,-3.82,-3.44,-0.04,0.04,0.14,-18.18,-18.00,-8.6811652.00,-8.70,-3.33,-4.09,-0.17,-0.03,0.06,-18.18,-18.00,-8.6811664.00,-8.94,-2.70,-3.03,-0.20,-0.24,-0.09,-18.18,-18.00,-8.6811677.00,-8.94,-2.70,-3.03,-0.20,-0.24,-0.09,-18.18,-18.00,-8.6811689.00,-8.50,-4.17,-3.23,-0.15,-0.32,-0.21,-18.18,-18.00,-8.6811701.00,-8.50,-4.17,-3.23,-0.15,-0.32,-0.21,-18.18,-18.00,-8.6811712.00,-8.05,-3.75,-4.36,-0.20,-0.21,-0.11,-18.18,-18.00,-8.6811725.00,-8.44,-4.48,-3.16,0.06,-0.08,-0.00,-18.18,-18.00,-8.6811737.00,-8.44,-4.48,-3.16,0.06,-0.08,-0.00,-18.18,-18.00,-8.6811748.00,-8.73,-4.22,-2.93,0.08,0.21,0.27,-18.18,-18.00,-8.6811759.00,-8.73,-4.22,-2.93,0.08,0.21,0.27,-18.18,-18.00,-8.6811772.00,-8.81,-3.42,-3.76,0.07,0.31,0.30,-18.18,-19.02,-9.6211783.00,-9.46,-2.99,-3.08,0.02,0.25,0.09,-18.18,-19.02,-9.6211795.00,-9.46,-2.99,-3.08,0.02,0.25,0.09,-18.18,-19.02,-9.6211806.00,-7.75,-3.89,-3.67,-0.19,0.19,-0.15,-18.18,-19.02,-9.6211818.00,-7.75,-3.89,-3.67,-0.19,0.19,-0.15,-18.18,-19.02,-9.6211830.00,-7.19,-4.09,-5.03,-0.30,-0.04,-0.12,-18.18,-19.02,-9.6211842.00,-7.08,-4.30,-5.24,-0.18,-0.21,0.03,-18.18,-19.02,-9.6211854.00,-7.08,-4.30,-5.24,-0.18,-0.21,0.03,-18.18,-19.02,-9.6211867.00,-8.65,-3.15,-4.20,-0.02,-0.33,0.15,-18.18,-19.02,-9.6211879.00,-8.65,-3.15,-4.20,-0.02,-0.33,0.15,-18.18,-19.02,-9.6211891.00,-8.76,-3.36,-3.33,0.01,-0.21,0.03,-17.97,-17.83,-10.0911903.00,-8.41,-3.16,-4.18,0.07,-0.08,-0.04,-17.97,-17.83,-10.0911917.00,-8.41,-3.16,-4.18,0.07,-0.08,-0.04,-17.97,-17.83,-10.0911929.00,-8.57,-3.91,-3.63,0.24,-0.06,-0.05,-17.97,-17.83,-10.0911941.00,-8.57,-3.91,-3.63,0.24,-0.06,-0.05,-17.97,-17.83,-10.0911953.00,-8.64,-4.19,-3.23,0.17,0.08,0.08,-17.97,-17.83,-10.0911967.00,-9.03,-3.04,-2.73,0.00,0.18,0.17,-17.97,-17.83,-10.0911979.00,-9.03,-3.04,-2.73,0.00,0.18,0.17,-17.97,-17.83,-10.0911990.00,-8.98,-2.77,-3.68,-0.22,0.22,0.20,-17.97,-17.83,-10.0912001.00,-8.98,-2.77,-3.68,-0.22,0.22,0.20,-17.97,-17.83,-10.0912006.00,-8.96,-3.82,-3.13,-0.35,0.14,0.20,-17.56,-16.81,-9.4612084.00,-7.98,-2.60,-5.26,0.10,-0.31,-0.15,-17.56,-16.81,-9.4612163.00,-9.25,-4.64,-2.13,-0.40,0.27,0.24,-19.21,-17.15,-10.4012241.00,-6.62,-3.53,-6.07,-0.48,0.17,-0.72,-19.21,-17.15,-10.4012331.00,-9.40,-3.04,-2.27,-0.16,-0.06,0.10,-18.59,-15.96,-11.1812342.00,-8.49,-4.28,-3.89,-0.41,0.23,0.32,-18.59,-15.96,-11.1812354.00,-8.49,-4.28,-3.89,-0.41,0.23,0.32,-18.59,-15.96,-11.1812366.00,-8.79,-2.22,-5.49,-0.35,0.31,0.62,-18.59,-15.96,-11.1812379.00,-8.79,-2.22,-5.49,-0.35,0.31,0.62,-18.59,-15.96,-11.1812391.00,-8.22,-3.45,-4.26,-0.07,0.29,0.69,-18.59,-16.64,-10.8712402.00,-8.43,-2.21,-5.24,-0.01,0.18,0.60,-18.59,-16.64,-10.8712416.00,-8.43,-2.21,-5.24,-0.01,0.18,0.60,-18.59,-16.64,-10.8712429.00,-8.60,-3.68,-3.23,0.35,-0.14,0.19,-18.59,-16.64,-10.8712440.00,-8.60,-3.68,-3.23,0.35,-0.14,0.19,-18.59,-16.64,-10.8712452.00,-8.72,-2.78,-2.98,0.09,-0.23,-0.00,-18.59,-16.64,-10.8712464.00,-8.52,-2.89,-3.92,-0.08,-0.35,-0.30,-18.59,-16.64,-10.8712477.00,-8.52,-2.89,-3.92,-0.08,-0.35,-0.30,-18.59,-16.64,-10.8712489.00,-9.06,-3.30,-3.23,-0.02,-0.47,-0.44,-18.59,-16.64,-10.8712501.00,-9.06,-3.30,-3.23,-0.02,-0.47,-0.44,-18.59,-16.64,-10.8712514.00,-9.25,-3.12,-2.78,-0.09,-0.46,-0.33,-20.04,-17.15,-8.8412526.00,-9.21,-3.40,-3.14,-0.09,-0.30,-0.24,-20.04,-17.15,-8.8412538.00,-9.21,-3.40,-3.14,-0.09,-0.30,-0.24,-20.04,-17.15,-8.8412550.00,-10.45,-3.36,-2.77,-0.18,0.11,-0.23,-20.04,-17.15,-8.8412563.00,-5.55,-4.03,-5.35,-0.34,0.44,-0.29,-20.04,-17.15,-8.8412574.00,-5.55,-4.03,-5.35,-0.34,0.44,-0.29,-20.04,-17.15,-8.8412586.00,-5.76,-4.83,-5.16,-0.01,0.12,-0.01,-20.04,-17.15,-8.8412598.00,-5.76,-4.83,-5.16,-0.01,0.12,-0.01,-20.04,-17.15,-8.8412611.00,-6.64,-4.28,-4.89,0.26,-0.12,0.32,-20.04,-17.15,-8.8412622.00,-6.64,-4.28,-4.89,0.26,-0.12,0.32,-20.04,-17.15,-8.8412633.00,-10.48,-3.16,-2.81,0.35,-0.33,0.57,-18.18,-16.64,-9.9312645.00,-9.62,-3.89,-1.58,0.09,-0.00,0.40,-18.18,-16.64,-9.9312658.00,-9.62,-3.89,-1.58,0.09,-0.00,0.40,-18.18,-16.64,-9.9312669.00,-9.29,-2.03,-3.98,-0.22,0.18,0.33,-18.18,-16.64,-9.9312681.00,-9.29,-2.03,-3.98,-0.22,0.18,0.33,-18.18,-16.64,-9.9312693.00,-9.00,-3.24,-3.78,-0.06,0.08,0.17,-18.18,-16.64,-9.9312707.00,-9.26,-2.80,-3.84,-0.02,-0.04,0.08,-18.18,-16.64,-9.9312719.00,-9.26,-2.80,-3.84,-0.02,-0.04,0.08,-18.18,-16.64,-9.9312730.00,-10.48,-2.13,-2.80,0.11,-0.28,-0.25,-18.18,-16.64,-9.9312742.00,-7.96,-3.69,-3.46,0.03,-0.12,-0.62,-18.38,-15.11,-8.5312756.00,-7.96,-3.69,-3.46,0.03,-0.12,-0.62,-18.38,-15.11,-8.5312768.00,-6.02,-4.19,-5.70,-0.01,-0.09,-0.55,-18.38,-15.11,-8.5312779.00,-6.02,-4.19,-5.70,-0.01,-0.09,-0.55,-18.38,-15.11,-8.5312790.00,-5.90,-4.75,-5.70,0.29,-0.34,-0.27,-18.38,-15.11,-8.5312804.00,-11.07,-2.77,-2.72,0.50,-0.53,0.16,-18.38,-15.11,-8.5312816.00,-11.07,-2.77,-2.72,0.50,-0.53,0.16,-18.38,-15.11,-8.5312827.00,-9.90,-2.98,-0.44,0.33,-0.25,0.07,-18.38,-15.11,-8.5312839.00,-9.90,-2.98,-0.44,0.33,-0.25,0.07,-18.38,-15.11,-8.5312852.00,-9.32,-3.24,-3.44,0.02,-0.01,0.02,-18.38,-15.11,-8.5312864.00,-10.53,-2.87,-4.01,0.05,-0.03,0.01,-18.38,-15.11,-8.5312876.00,-10.53,-2.87,-4.01,0.05,-0.03,0.01,-18.38,-15.11,-8.5312888.00,-7.27,-4.08,-3.66,0.08,0.12,-0.08,-20.04,-16.81,-8.8412901.00,-7.27,-4.08,-3.66,0.08,0.12,-0.08,-20.04,-16.81,-8.8412912.00,-6.69,-4.63,-4.08,0.06,0.08,0.13,-20.04,-16.81,-8.8412923.00,-6.40,-4.55,-4.17,0.13,-0.03,0.40,-20.04,-16.81,-8.8412935.00,-6.40,-4.55,-4.17,0.13,-0.03,0.40,-20.04,-16.81,-8.8412948.00,-12.01,-2.02,-2.08,0.15,-0.22,0.51,-20.04,-16.81,-8.8412958.00,-12.01,-2.02,-2.08,0.15,-0.22,0.51,-20.04,-16.81,-8.8412970.00,-9.50,-3.00,-1.06,-0.02,-0.10,0.14,-20.04,-16.81,-8.8412982.00,-9.16,-2.67,-3.77,-0.32,-0.00,0.03,-20.04,-16.81,-8.8412986.00,-9.16,-2.67,-3.77,-0.32,-0.00,0.03,-20.04,-16.81,-8.8413066.00,-8.51,-3.72,-3.38,-0.05,-0.13,0.03,-20.04,-17.15,-7.9013143.00,-8.96,-3.23,-3.03,-0.32,0.04,0.14,-21.69,-16.81,-9.4613223.00,-8.80,-2.71,-3.45,-0.06,-0.13,-0.06,-21.69,-16.81,-9.4613311.00,-8.79,-2.89,-4.27,-0.47,0.08,0.22,-20.86,-14.77,-8.8413323.00,-8.76,-2.61,-3.87,-0.33,-0.07,0.12,-20.86,-14.77,-8.8413334.00,-8.76,-2.61,-3.87,-0.33,-0.07,0.12,-20.86,-14.77,-8.8413345.00,-8.90,-2.69,-3.29,-0.20,-0.13,0.01,-20.86,-14.77,-8.8413358.00,-8.90,-2.69,-3.29,-0.20,-0.13,0.01,-20.86,-14.77,-8.8413370.00,-8.69,-2.32,-3.97,-0.10,-0.16,-0.13,-20.86,-14.77,-8.8413382.00,-8.69,-2.32,-3.97,-0.10,-0.16,-0.13,-20.86,-14.77,-8.8413393.00,-8.56,-2.95,-4.26,0.04,-0.17,-0.17,-20.04,-15.45,-10.4013407.00,-8.84,-2.82,-4.16,0.09,-0.11,-0.03,-20.04,-15.45,-10.4013418.00,-8.84,-2.82,-4.16,0.09,-0.11,-0.03,-20.04,-15.45,-10.4013428.00,-8.73,-4.34,-2.81,0.14,-0.07,0.12,-20.04,-15.45,-10.4013440.00,-8.73,-4.34,-2.81,0.14,-0.07,0.12,-20.04,-15.45,-10.4013453.00,-8.86,-2.76,-3.71,-0.04,0.04,0.35,-20.04,-15.45,-10.4013465.00,-8.69,-3.02,-3.49,-0.04,0.02,0.30,-20.04,-15.45,-10.4013475.00,-8.69,-3.02,-3.49,-0.04,0.02,0.30,-20.04,-15.45,-10.4013487.00,-8.72,-2.22,-4.19,0.04,0.03,0.25,-20.04,-15.45,-10.4013501.00,-8.72,-2.22,-4.19,0.04,0.03,0.25,-20.04,-15.45,-10.4013513.00,-8.83,-2.24,-3.74,0.26,0.01,0.14,-20.65,-14.26,-9.6213524.00,-9.16,-2.70,-1.72,0.34,0.06,-0.00,-20.65,-14.26,-9.6213535.00,-9.16,-2.70,-1.72,0.34,0.06,-0.00,-20.65,-14.26,-9.6213548.00,-9.34,-2.11,-2.35,0.30,0.25,-0.10,-20.65,-14.26,-9.6213560.00,-9.34,-2.11,-2.35,0.30,0.25,-0.10,-20.65,-14.26,-9.6213572.00,-12.52,-1.36,-2.11,0.40,0.36,-0.27,-20.65,-14.26,-9.6213583.00,-10.05,-3.23,-3.81,0.29,0.71,-0.57,-20.65,-14.26,-9.6213596.00,-10.05,-3.23,-3.81,0.29,0.71,-0.57,-20.65,-14.26,-9.6213607.00,-10.02,1.25,-2.79,0.18,0.12,-0.15,-20.65,-14.26,-9.6213618.00,-10.02,1.25,-2.79,0.18,0.12,-0.15,-20.65,-14.26,-9.6213629.00,-10.19,-3.17,3.21,0.29,-0.49,-0.24,-21.07,-15.96,-9.0013643.00,-6.39,-2.34,-5.44,-0.58,0.25,-0.19,-21.07,-15.96,-9.0013655.00,-6.39,-2.34,-5.44,-0.58,0.25,-0.19,-21.07,-15.96,-9.0013667.00,-4.21,-4.22,-7.30,-0.48,0.29,-0.15,-21.07,-15.96,-9.0013680.00,-4.21,-4.22,-7.30,-0.48,0.29,-0.15,-21.07,-15.96,-9.0013692.00,-5.01,-4.21,-9.83,0.10,0.56,-0.11,-21.07,-15.96,-9.0013704.00,-6.80,-4.81,-9.22,0.85,0.51,-0.22,-21.07,-15.96,-9.0013715.00,-6.80,-4.81,-9.22,0.85,0.51,-0.22,-21.07,-15.96,-9.0013728.00,-11.33,-5.15,-1.23,1.31,-0.04,-0.34,-21.07,-15.96,-9.0013739.00,-11.33,-5.15,-1.23,1.31,-0.04,-0.34,-21.07,-15.96,-9.0013750.00,-9.83,-5.18,0.83,0.58,0.15,-0.45,-17.56,-17.83,-9.7813762.00,-9.83,-5.18,0.83,0.58,0.15,-0.45,-17.56,-17.83,-9.7813774.00,-7.64,-3.42,-3.61,-0.46,0.28,-0.23,-17.56,-17.83,-9.7813786.00,-8.91,-2.76,-4.91,-0.46,0.02,-0.09,-17.56,-17.83,-9.7813798.00,-8.91,-2.76,-4.91,-0.46,0.02,-0.09,-17.56,-17.83,-9.7813810.00,-8.32,-3.59,-3.96,-0.24,-0.04,-0.06,-17.56,-17.83,-9.7813823.00,-8.90,-2.46,-4.36,-0.30,0.01,0.10,-17.56,-17.83,-9.7813834.00,-8.90,-2.46,-4.36,-0.30,0.01,0.10,-17.56,-17.83,-9.7813846.00,-8.42,-3.41,-4.02,-0.20,-0.06,0.04,-17.56,-17.83,-9.7813858.00,-8.42,-3.41,-4.02,-0.20,-0.06,0.04,-17.56,-17.83,-9.7813870.00,-8.10,-3.58,-4.62,-0.18,-0.10,0.05,-17.56,-17.83,-9.7813882.00,-8.10,-3.58,-4.62,-0.18,-0.10,0.05,-17.56,-17.83,-9.7813894.00,-7.31,-3.92,-5.03,-0.05,-0.20,0.08,-18.38,-16.81,-10.4013906.00,-9.51,-2.90,-4.02,0.06,-0.39,0.12,-18.38,-16.81,-10.4013920.00,-9.51,-2.90,-4.02,0.06,-0.39,0.12,-18.38,-16.81,-10.4013932.00,-8.57,-2.95,-3.95,-0.04,-0.26,-0.06,-18.38,-16.81,-10.4013943.00,-8.44,-2.57,-5.07,0.14,-0.19,-0.15,-18.38,-16.81,-10.4013954.00,-8.44,-2.57,-5.07,0.14,-0.19,-0.15,-18.38,-16.81,-10.4013968.00,-8.27,-3.09,-3.89,0.58,-0.22,-0.25,-18.38,-16.81,-10.4013979.00,-8.27,-3.09,-3.89,0.58,-0.22,-0.25,-18.38,-16.81,-10.4013990.00,-8.62,-4.49,-2.76,0.73,-0.08,-0.22,-18.38,-16.81,-10.4014001.00,-8.62,-4.49,-2.76,0.73,-0.08,-0.22,-18.38,-16.81,-10.4014015.00,-9.32,-3.22,-2.69,0.32,0.13,0.02,-18.18,-19.02,-9.0014027.00,-8.83,-5.82,-1.47,-0.07,0.27,0.15,-18.18,-19.02,-9.0014039.00,-8.83,-5.82,-1.47,-0.07,0.27,0.15,-18.18,-19.02,-9.0014051.00,-8.64,-3.16,-4.81,-0.75,0.34,0.41,-18.18,-19.02,-9.0014064.00,-8.70,-3.50,-4.63,-0.83,0.09,0.32,-18.18,-19.02,-9.0014075.00,-8.70,-3.50,-4.63,-0.83,0.09,0.32,-18.18,-19.02,-9.0014086.00,-8.58,-1.55,-4.99,-0.83,-0.16,0.21,-18.18,-19.02,-9.0014097.00,-8.58,-1.55,-4.99,-0.83,-0.16,0.21,-18.18,-19.02,-9.0014111.00,-8.59,-1.37,-5.66,-0.39,-0.40,-0.19,-18.18,-19.02,-9.0014123.00,-8.55,-3.25,-3.83,0.16,-0.68,-0.53,-19.42,-15.96,-10.5614134.00,-8.55,-3.25,-3.83,0.16,-0.68,-0.53,-19.42,-15.96,-10.5614146.00,-7.73,-1.99,-7.27,0.42,-0.60,-0.53,-19.42,-15.96,-10.5614159.00,-7.73,-1.99,-7.27,0.42,-0.60,-0.53,-19.42,-15.96,-10.5614169.00,-7.98,-3.45,-2.87,1.04,-0.53,-0.52,-19.42,-15.96,-10.5614181.00,-7.98,-3.45,-2.87,1.04,-0.53,-0.52,-19.42,-15.96,-10.5614193.00,-8.52,-6.40,-1.56,1.06,-0.14,-0.35,-19.42,-15.96,-10.5614207.00,-9.12,-5.29,-2.44,0.19,0.33,0.22,-19.42,-15.96,-10.5614219.00,-9.12,-5.29,-2.44,0.19,0.33,0.22,-19.42,-15.96,-10.5614231.00,-9.19,-3.22,-2.99,-0.42,0.51,0.61,-19.42,-15.96,-10.5614243.00,-8.96,-3.66,-2.62,-0.58,0.37,0.52,-18.80,-18.51,-9.1514256.00,-8.96,-3.66,-2.62,-0.58,0.37,0.52,-18.80,-18.51,-9.1514268.00,-8.97,-2.58,-4.32,-0.77,0.23,0.36,-18.80,-18.51,-9.1514280.00,-8.97,-2.58,-4.32,-0.77,0.23,0.36,-18.80,-18.51,-9.1514291.00,-9.94,-1.15,-4.61,-0.69,-0.13,-0.03,-18.80,-18.51,-9.1514304.00,-7.74,-3.38,-4.54,-0.26,-0.21,-0.50,-18.80,-18.51,-9.1514316.00,-7.74,-3.38,-4.54,-0.26,-0.21,-0.50,-18.80,-18.51,-9.1514328.00,-7.12,-4.39,-4.67,0.04,-0.22,-0.39,-18.80,-18.51,-9.1514339.00,-7.12,-4.39,-4.67,0.04,-0.22,-0.39,-18.80,-18.51,-9.1514352.00,-6.72,-4.64,-4.76,0.23,-0.21,-0.10,-18.80,-18.51,-9.1514363.00,-8.49,-3.45,-3.67,0.41,-0.31,0.14,-18.80,-18.51,-9.1514375.00,-8.49,-3.45,-3.67,0.41,-0.31,0.14,-18.80,-18.51,-9.1514388.00,-9.46,-4.20,-1.86,0.38,-0.23,0.08,-19.62,-17.49,-10.7114400.00,-9.46,-4.20,-1.86,0.38,-0.23,0.08,-19.62,-17.49,-10.7114412.00,-8.50,-3.18,-4.21,0.03,0.01,0.07,-19.62,-17.49,-10.7114423.00,-8.50,-3.18,-4.21,0.03,0.01,0.07,-19.62,-17.49,-10.7114436.00,-8.54,-3.13,-4.45,0.15,0.01,0.05,-19.62,-17.49,-10.7114448.00,-8.63,-3.57,-2.59,0.24,0.02,0.06,-19.62,-17.49,-10.7114460.00,-8.63,-3.57,-2.59,0.24,0.02,0.06,-19.62,-17.49,-10.7114471.00,-8.92,-3.39,-2.78,0.06,0.13,0.12,-19.62,-17.49,-10.7114485.00,-8.88,-3.47,-3.40,-0.13,0.13,0.13,-19.62,-17.49,-10.7114497.00,-8.88,-3.47,-3.40,-0.13,0.13,0.13,-19.62,-17.49,-10.7114509.00,-8.79,-3.84,-3.22,-0.37,0.06,0.17,-18.80,-16.81,-10.7114521.00,-8.79,-3.84,-3.22,-0.37,0.06,0.17,-18.80,-16.81,-10.7114535.00,-8.69,-2.29,-4.05,-0.62,-0.07,0.20,-18.80,-16.81,-10.7114545.00,-8.35,-2.65,-4.49,-0.40,-0.26,-0.03,-18.80,-16.81,-10.7114557.00,-8.35,-2.65,-4.49,-0.40,-0.26,-0.03,-18.80,-16.81,-10.7114569.00,-8.17,-3.73,-4.53,-0.09,-0.27,-0.17,-18.80,-16.81,-10.7114582.00,-8.17,-3.73,-4.53,-0.09,-0.27,-0.17,-18.80,-16.81,-10.7114594.00,-8.38,-3.50,-4.01,0.08,-0.19,-0.11,-18.80,-16.81,-10.7114606.00,-8.50,-4.47,-2.93,0.16,-0.07,-0.03,-18.80,-16.81,-10.7114618.00,-8.50,-4.47,-2.93,0.16,-0.07,-0.03,-18.80,-16.81,-10.7114630.00,-8.69,-3.86,-3.79,0.01,0.06,0.15,-17.56,-17.49,-9.7814641.00,-8.69,-3.86,-3.79,0.01,0.06,0.15,-17.56,-17.49,-9.7814653.00,-8.66,-2.91,-3.86,-0.13,0.03,0.17,-17.56,-17.49,-9.7814665.00,-8.81,-3.71,-3.24,-0.16,-0.03,0.05,-17.56,-17.49,-9.7814678.00,-8.81,-3.71,-3.24,-0.16,-0.03,0.05,-17.56,-17.49,-9.7814690.00,-9.26,-2.18,-3.89,-0.39,-0.08,0.04,-17.56,-17.49,-9.7814702.00,-9.26,-2.18,-3.89,-0.39,-0.08,0.04,-17.56,-17.49,-9.7814714.00,-8.58,-3.40,-4.05,-0.34,-0.27,-0.17,-17.56,-17.49,-9.7814718.00,-8.58,-3.40,-4.05,-0.34,-0.27,-0.17,-17.56,-17.49,-9.7814796.00,-8.84,-2.19,-4.08,-0.15,0.13,0.22,-20.24,-16.64,-9.0014875.00,-8.33,-3.97,-3.03,-0.21,-0.14,-0.09,-20.24,-16.64,-9.0014953.00,-8.69,-3.46,-3.21,0.18,-0.06,-0.05,-18.80,-14.09,-11.3415044.00,-8.62,-2.77,-3.94,-0.20,0.04,0.37,-19.62,-15.45,-10.4015055.00,-8.62,-2.77,-3.94,-0.20,0.04,0.37,-19.62,-15.45,-10.4015067.00,-8.61,-2.32,-4.74,-0.10,-0.02,0.17,-19.62,-15.45,-10.4015079.00,-8.61,-2.32,-4.74,-0.10,-0.02,0.17,-19.62,-15.45,-10.4015092.00,-8.20,-2.26,-4.59,0.13,-0.12,0.01,-19.62,-15.45,-10.4015103.00,-8.57,-2.50,-5.41,0.56,-0.05,-0.18,-19.62,-15.45,-10.4015115.00,-8.57,-2.50,-5.41,0.56,-0.05,-0.18,-19.62,-15.45,-10.4015127.00,-9.63,-2.20,-2.81,0.75,-0.17,-0.29,-20.04,-15.11,-9.7815141.00,-9.63,-2.20,-2.81,0.75,-0.17,-0.29,-20.04,-15.11,-9.7815152.00,-10.36,-2.01,-1.91,0.53,-0.14,-0.35,-20.04,-15.11,-9.7815163.00,-14.75,-2.67,0.18,0.26,-0.13,-0.59,-20.04,-15.11,-9.7815175.00,-14.75,-2.67,0.18,0.26,-0.13,-0.59,-20.04,-15.11,-9.7815189.00,-7.98,-3.88,-4.52,-0.36,0.50,-0.86,-20.04,-15.11,-9.7815200.00,-7.98,-3.88,-4.52,-0.36,0.50,-0.86,-20.04,-15.11,-9.7815212.00,-6.88,-1.45,-2.90,-0.48,-0.04,-0.38,-20.04,-15.11,-9.7815224.00,-9.03,-3.85,-0.27,-0.20,-0.44,-0.21,-20.04,-15.11,-9.7815237.00,-9.03,-3.85,-0.27,-0.20,-0.44,-0.21,-20.04,-15.11,-9.7815249.00,-5.43,-3.85,-6.98,-0.48,0.24,-0.12,-18.59,-16.98,-9.6215261.00,-5.43,-3.85,-6.98,-0.48,0.24,-0.12,-18.59,-16.98,-9.6215274.00,-5.25,-4.79,-6.62,0.07,0.31,0.06,-18.59,-16.98,-9.6215286.00,-5.04,-6.13,-6.76,0.53,0.39,0.16,-18.59,-16.98,-9.6215297.00,-5.04,-6.13,-6.76,0.53,0.39,0.16,-18.59,-16.98,-9.6215309.00,-8.37,-3.19,-4.98,0.77,0.16,0.38,-18.59,-16.98,-9.6215321.00,-8.37,-3.19,-4.98,0.77,0.16,0.38,-18.59,-16.98,-9.6215334.00,-11.29,-3.33,-0.86,0.86,-0.09,0.18,-18.59,-16.98,-9.6215346.00,-9.84,-3.31,-1.71,0.26,0.07,-0.04,-18.59,-16.98,-9.6215358.00,-9.84,-3.31,-1.71,0.26,0.07,-0.04,-18.59,-16.98,-9.6215369.00,-8.29,-3.14,-4.84,-0.24,0.15,-0.01,-18.59,-16.98,-9.6215382.00,-8.29,-3.14,-4.84,-0.24,0.15,-0.01,-18.59,-16.98,-9.6215394.00,-7.76,-3.07,-6.10,-0.17,0.06,0.08,-17.35,-18.34,-10.5615406.00,-7.86,-3.28,-4.91,0.12,-0.13,0.14,-17.35,-18.34,-10.5615419.00,-7.86,-3.28,-4.91,0.12,-0.13,0.14,-17.35,-18.34,-10.5615430.00,-9.01,-3.21,-3.74,0.25,-0.38,0.18,-17.35,-18.34,-10.5615444.00,-9.49,-4.14,-2.37,0.22,-0.39,-0.00,-17.35,-18.34,-10.5615455.00,-9.49,-4.14,-2.37,0.22,-0.39,-0.00,-17.35,-18.34,-10.5615468.00,-8.89,-3.37,-3.35,-0.12,-0.15,-0.04,-17.35,-18.34,-10.5615480.00,-8.89,-3.37,-3.35,-0.12,-0.15,-0.04,-17.35,-18.34,-10.5615492.00,-9.03,-3.22,-3.31,-0.32,-0.20,-0.07,-17.35,-18.34,-10.5615504.00,-8.74,-3.07,-3.10,-0.55,-0.29,-0.15,-18.80,-16.13,-9.4615517.00,-8.74,-3.07,-3.10,-0.55,-0.29,-0.15,-18.80,-16.13,-9.4615529.00,-8.45,-1.93,-5.19,-0.62,-0.17,-0.05,-18.80,-16.13,-9.4615539.00,-8.45,-1.93,-5.19,-0.62,-0.17,-0.05,-18.80,-16.13,-9.4615551.00,-8.30,-4.62,-4.11,-0.08,-0.13,-0.00,-18.80,-16.13,-9.4615565.00,-8.34,-4.10,-4.09,0.12,-0.06,0.19,-18.80,-16.13,-9.4615577.00,-8.34,-4.10,-4.09,0.12,-0.06,0.19,-18.80,-16.13,-9.4615589.00,-8.28,-3.41,-3.62,0.14,0.03,0.29,-18.80,-16.13,-9.4615600.00,-8.28,-3.41,-3.62,0.14,0.03,0.29,-18.80,-16.13,-9.4615613.00,-8.74,-3.58,-2.77,0.11,-0.01,0.15,-18.80,-16.13,-9.4615625.00,-8.72,-3.27,-3.35,-0.11,-0.02,0.07,-20.04,-16.47,-9.4615637.00,-8.72,-3.27,-3.35,-0.11,-0.02,0.07,-20.04,-16.47,-9.4615647.00,-8.74,-2.82,-4.21,-0.33,-0.04,0.02,-20.04,-16.47,-9.4615661.00,-8.74,-2.82,-4.21,-0.33,-0.04,0.02,-20.04,-16.47,-9.4615673.00,-8.95,-2.66,-4.08,-0.34,-0.19,-0.11,-20.04,-16.47,-9.4615684.00,-8.82,-3.30,-3.16,-0.32,-0.31,-0.23,-20.04,-16.47,-9.4615696.00,-8.82,-3.30,-3.16,-0.32,-0.31,-0.23,-20.04,-16.47,-9.4615710.00,-8.51,-3.27,-4.40,-0.37,-0.18,-0.13,-20.04,-16.47,-9.4615722.00,-8.51,-3.27,-4.40,-0.37,-0.18,-0.13,-20.04,-16.47,-9.4615734.00,-8.56,-3.84,-4.51,-0.20,-0.08,-0.01,-20.04,-16.47,-9.4615745.00,-8.45,-3.71,-3.67,-0.09,-0.07,0.15,-18.80,-15.45,-10.0915758.00,-8.45,-3.71,-3.67,-0.09,-0.07,0.15,-18.80,-15.45,-10.0915769.00,-8.55,-3.11,-3.92,-0.04,0.04,0.29,-18.80,-15.45,-10.0915781.00,-8.55,-3.11,-3.92,-0.04,0.04,0.29,-18.80,-15.45,-10.0915793.00,-8.72,-3.51,-3.04,0.05,0.02,0.17,-18.80,-15.45,-10.0915806.00,-8.69,-2.91,-3.94,-0.05,0.02,0.07,-18.80,-15.45,-10.0915817.00,-8.69,-2.91,-3.94,-0.05,0.02,0.07,-18.80,-15.45,-10.0915829.00,-8.84,-3.40,-3.39,-0.14,-0.02,0.01,-18.80,-15.45,-10.0915841.00,-8.84,-3.40,-3.39,-0.14,-0.02,0.01,-18.80,-15.45,-10.0915854.00,-9.23,-2.66,-3.36,-0.28,-0.08,-0.03,-18.80,-15.45,-10.0915866.00,-8.79,-2.54,-3.72,-0.27,-0.19,-0.20,-19.42,-15.62,-10.2515878.00,-8.79,-2.54,-3.72,-0.27,-0.19,-0.20,-19.42,-15.62,-10.2515888.00,-8.09,-3.08,-5.24,-0.26,-0.20,-0.23,-19.42,-15.62,-10.2515902.00,-8.09,-3.08,-5.24,-0.26,-0.20,-0.23,-19.42,-15.62,-10.2515914.00,-8.24,-3.61,-4.08,-0.06,-0.15,-0.10,-19.42,-15.62,-10.2515926.00,-8.83,-3.60,-2.83,-0.05,-0.03,0.07,-19.42,-15.62,-10.2515939.00,-8.83,-3.60,-2.83,-0.05,-0.03,0.07,-19.42,-15.62,-10.2515951.00,-8.84,-3.44,-2.88,-0.25,0.09,0.21,-19.42,-15.62,-10.2515963.00,-8.84,-3.44,-2.88,-0.25,0.09,0.21,-19.42,-15.62,-10.2515974.00,-8.78,-3.51,-3.10,-0.40,0.11,0.24,-19.42,-15.62,-10.2515987.00,-8.95,-2.74,-4.26,-0.53,0.10,0.26,-19.42,-15.62,-10.2515998.00,-8.95,-2.74,-4.26,-0.53,0.10,0.26,-19.42,-15.62,-10.2516009.00,-8.75,-2.49,-4.10,-0.51,-0.00,0.18,-20.24,-15.28,-10.5616021.00,-8.75,-2.49,-4.10,-0.51,-0.00,0.18,-20.24,-15.28,-10.5616034.00,-8.46,-1.73,-5.83,-0.32,-0.10,-0.01,-20.24,-15.28,-10.5616046.00,-8.27,-3.22,-4.76,0.08,-0.17,-0.14,-20.24,-15.28,-10.5616058.00,-8.27,-3.22,-4.76,0.08,-0.17,-0.14,-20.24,-15.28,-10.5616069.00,-8.59,-2.72,-3.95,0.16,-0.14,-0.07,-20.24,-15.28,-10.5616082.00,-8.59,-2.72,-3.95,0.16,-0.14,-0.07,-20.24,-15.28,-10.5616094.00,-8.52,-3.68,-3.28,0.21,-0.05,-0.03,-20.24,-15.28,-10.5616105.00,-8.93,-3.31,-2.91,0.08,0.09,0.18,-20.24,-15.28,-10.5616116.00,-8.93,-3.31,-2.91,0.08,0.09,0.18,-20.24,-15.28,-10.5616130.00,-9.01,-3.17,-2.49,-0.15,0.14,0.32,-21.27,-13.41,-11.9716142.00,-9.01,-3.17,-2.49,-0.15,0.14,0.32,-21.27,-13.41,-11.9716154.00,-8.87,-3.45,-3.43,-0.45,0.19,0.34,-21.27,-13.41,-11.9716166.00,-8.95,-1.34,-4.65,-0.65,0.09,0.27,-21.27,-13.41,-11.9716179.00,-8.95,-1.34,-4.65,-0.65,0.09,0.27,-21.27,-13.41,-11.9716190.00,-8.83,-1.23,-4.68,-0.45,-0.11,-0.06,-21.27,-13.41,-11.9716202.00,-8.83,-1.23,-4.68,-0.45,-0.11,-0.06,-21.27,-13.41,-11.9716214.00,-8.07,-2.12,-5.91,-0.10,-0.22,-0.34,-21.27,-13.41,-11.9716227.00,-7.77,-2.38,-5.67,0.31,-0.28,-0.46,-21.27,-13.41,-11.9716239.00,-7.77,-2.38,-5.67,0.31,-0.28,-0.46,-21.27,-13.41,-11.9716251.00,-8.62,-3.46,-4.11,0.54,-0.24,-0.46,-21.07,-13.58,-11.8116262.00,-8.62,-3.46,-4.11,0.54,-0.24,-0.46,-21.07,-13.58,-11.8116275.00,-9.13,-3.45,-1.92,0.38,-0.11,-0.22,-21.07,-13.58,-11.8116287.00,-9.20,-4.22,-1.74,-0.09,0.03,0.01,-21.07,-13.58,-11.8116299.00,-9.20,-4.22,-1.74,-0.09,0.03,0.01,-21.07,-13.58,-11.8116311.00,-8.75,-3.36,-4.01,-0.78,0.18,0.37,-21.07,-13.58,-11.8116325.00,-8.38,-3.46,-4.09,-0.99,0.19,0.62,-21.07,-13.58,-11.8116337.00,-8.38,-3.46,-4.09,-0.99,0.19,0.62,-21.07,-13.58,-11.8116349.00,-8.74,-1.64,-5.70,-0.83,0.20,0.72,-21.07,-13.58,-11.8116361.00,-8.74,-1.64,-5.70,-0.83,0.20,0.72,-21.07,-13.58,-11.8116373.00,-8.87,-1.83,-4.81,-0.36,-0.01,0.40,-20.04,-12.39,-11.6516385.00,-9.39,-1.31,-4.04,-0.10,-0.19,0.13,-20.04,-12.39,-11.6516397.00,-9.39,-1.31,-4.04,-0.10,-0.19,0.13,-20.04,-12.39,-11.6516410.00,-9.15,-2.35,-3.10,-0.17,-0.42,-0.28,-20.04,-12.39,-11.6516422.00,-9.15,-2.35,-3.10,-0.17,-0.42,-0.28,-20.04,-12.39,-11.6516434.00,-8.07,-3.45,-4.37,-0.38,-0.44,-0.41,-20.04,-12.39,-11.6516446.00,-8.17,-2.26,-5.62,-0.26,-0.21,-0.14,-20.04,-12.39,-11.6516460.00,-8.17,-2.26,-5.62,-0.26,-0.21,-0.14,-20.04,-12.39,-11.6516472.00,-8.43,-3.39,-3.04,0.15,-0.06,0.08,-20.04,-12.39,-11.6516484.00,-9.33,-1.48,-4.54,0.28,0.25,0.36,-20.04,-12.39,-11.6516496.00,-9.33,-1.48,-4.54,0.28,0.25,0.36,-20.04,-12.39,-11.6516508.00,-9.60,-2.00,-3.99,0.39,0.15,0.20,-20.65,-11.88,-11.5016520.00,-9.60,-2.00,-3.99,0.39,0.15,0.20,-20.65,-11.88,-11.5016532.00,-11.44,-1.44,-1.56,0.23,0.17,-0.09,-20.65,-11.88,-11.5016544.00,-11.44,-1.44,-1.56,0.23,0.17,-0.09,-20.65,-11.88,-11.5016557.00,-9.56,-2.82,-1.53,-0.12,0.54,-0.49,-20.65,-11.88,-11.5016569.00,-8.27,-2.05,-4.58,-0.41,0.75,-0.55,-20.65,-11.88,-11.5016581.00,-8.27,-2.05,-4.58,-0.41,0.75,-0.55,-20.65,-11.88,-11.5016592.00,-7.95,-0.89,-4.96,-0.28,0.23,-0.45,-20.65,-11.88,-11.5016605.00,-7.63,-2.73,-4.58,0.12,-0.11,-0.54,-20.65,-11.88,-11.5016616.00,-7.63,-2.73,-4.58,0.12,-0.11,-0.54,-20.65,-11.88,-11.5016628.00,-6.77,-2.69,-5.42,0.51,-0.23,-0.48,-19.21,-11.71,-10.7116640.00,-6.77,-2.69,-5.42,0.51,-0.23,-0.48,-19.21,-11.71,-10.7116653.00,-5.72,-4.78,-4.16,0.99,-0.20,-0.33,-19.21,-11.71,-10.7116665.00,-6.62,-4.67,-5.08,0.90,0.17,0.04,-19.21,-11.71,-10.7116677.00,-6.62,-4.67,-5.08,0.90,0.17,0.04,-19.21,-11.71,-10.7116688.00,-7.82,-4.67,-7.90,0.68,0.46,0.22,-19.21,-11.71,-10.7116702.00,-7.82,-4.67,-7.90,0.68,0.46,0.22,-19.21,-11.71,-10.7116713.00,-7.84,-2.71,-7.01,0.72,0.31,0.14,-19.21,-11.71,-10.7116725.00,-9.23,-3.53,-2.83,1.15,-0.05,-0.12,-19.21,-11.71,-10.7116737.00,-9.23,-3.53,-2.83,1.15,-0.05,-0.12,-19.21,-11.71,-10.7116750.00,-10.20,-4.27,-0.54,0.63,-0.16,-0.18,-17.76,-15.96,-11.8116762.00,-10.20,-4.27,-0.54,0.63,-0.16,-0.18,-17.76,-15.96,-11.8116774.00,-9.17,-2.49,-3.53,-0.29,0.05,-0.04,-17.76,-15.96,-11.8116786.00,-8.42,-2.47,-4.91,-0.41,0.05,-0.04,-17.76,-15.96,-11.8116800.00,-8.42,-2.47,-4.91,-0.41,0.05,-0.04,-17.76,-15.96,-11.8116811.00,-8.30,-2.78,-4.94,-0.21,-0.02,-0.01,-17.76,-15.96,-11.8116822.00,-8.30,-2.78,-4.94,-0.21,-0.02,-0.01,-17.76,-15.96,-11.8116835.00,-8.24,-3.09,-4.29,-0.08,-0.07,0.05,-17.76,-15.96,-11.8116847.00,-7.95,-3.71,-4.25,-0.07,-0.08,0.13,-17.76,-15.96,-11.8116859.00,-7.95,-3.71,-4.25,-0.07,-0.08,0.13,-17.76,-15.96,-11.8116869.00,-7.89,-3.63,-4.77,-0.06,-0.15,0.30,-18.59,-14.60,-10.8716883.00,-7.89,-3.63,-4.77,-0.06,-0.15,0.30,-18.59,-14.60,-10.8716895.00,-10.48,-3.04,-3.63,0.08,-0.30,0.34,-18.59,-14.60,-10.8716907.00,-8.89,-3.31,-3.17,-0.02,-0.22,0.15,-18.59,-14.60,-10.8716919.00,-8.89,-3.31,-3.17,-0.02,-0.22,0.15,-18.59,-14.60,-10.8716933.00,-8.89,-3.61,-2.73,-0.23,-0.16,0.15,-18.59,-14.60,-10.8716945.00,-8.88,-2.25,-3.71,-0.54,-0.14,0.16,-18.59,-14.60,-10.8716957.00,-8.88,-2.25,-3.71,-0.54,-0.14,0.16,-18.59,-14.60,-10.8716968.00,-8.41,-2.97,-4.80,-0.41,-0.23,-0.06,-18.59,-14.60,-10.8716981.00,-8.41,-2.97,-4.80,-0.41,-0.23,-0.06,-18.59,-14.60,-10.8716993.00,-8.02,-2.14,-6.38,-0.11,-0.30,-0.23,-18.59,-14.60,-10.8717005.00,-8.47,-1.77,-4.79,0.25,-0.32,-0.23,-19.21,-14.09,-11.0317015.00,-8.47,-1.77,-4.79,0.25,-0.32,-0.23,-19.21,-14.09,-11.0317029.00,-8.78,-2.19,-3.34,0.40,-0.26,-0.21,-19.21,-14.09,-11.0317041.00,-8.78,-2.19,-3.34,0.40,-0.26,-0.21,-19.21,-14.09,-11.0317053.00,-8.23,-7.16,-1.82,0.36,0.03,0.08,-19.21,-14.09,-11.0317064.00,-8.23,-7.16,-1.82,0.36,0.03,0.08,-19.21,-14.09,-11.0317077.00,-8.70,-2.33,-4.78,-0.29,0.31,0.77,-19.21,-14.09,-11.0317089.00,-8.44,-2.47,-4.52,-0.08,0.20,0.76,-19.21,-14.09,-11.0317101.00,-8.44,-2.47,-4.52,-0.08,0.20,0.76,-19.21,-14.09,-11.0317112.00,-8.20,-2.78,-4.51,-0.06,0.08,0.53,-19.21,-14.09,-11.0317116.00,-8.20,-2.78,-4.51,-0.06,0.08,0.53,-19.21,-14.09,-11.0317194.00,-9.25,-1.54,-3.52,-0.24,-0.14,-0.26,-20.65,-14.26,-10.5617273.00,-9.26,-2.45,-3.43,-0.90,0.66,-0.50,-20.24,-14.60,-12.1217352.00,-7.44,-4.19,-3.55,0.78,-0.84,-0.19,-20.24,-14.60,-12.1217442.00,-9.18,-3.24,-3.48,0.25,-0.09,0.04,-20.24,-15.62,-10.2517454.00,-11.10,-1.97,-2.77,0.18,0.02,0.17,-20.24,-15.62,-10.2517465.00,-11.14,-2.74,-1.38,0.02,0.43,-0.14,-20.24,-15.62,-10.2517479.00,-11.14,-2.74,-1.38,0.02,0.43,-0.14,-20.24,-15.62,-10.2517491.00,-6.38,-3.66,-4.72,-0.33,0.86,-0.33,-20.24,-15.62,-10.2517502.00,-6.38,-3.66,-4.72,-0.33,0.86,-0.33,-20.24,-15.62,-10.2517513.00,-5.73,-4.14,-6.28,-0.32,0.53,-0.15,-19.21,-14.09,-10.7117526.00,-5.61,-4.53,-6.19,-0.17,0.08,0.06,-19.21,-14.09,-10.7117537.00,-5.61,-4.53,-6.19,-0.17,0.08,0.06,-19.21,-14.09,-10.7117549.00,-7.32,-3.75,-5.25,-0.06,-0.25,0.28,-19.21,-14.09,-10.7117561.00,-7.32,-3.75,-5.25,-0.06,-0.25,0.28,-19.21,-14.09,-10.7117574.00,-8.88,-3.43,-3.38,0.01,-0.31,0.35,-19.21,-14.09,-10.7117585.00,-7.59,-2.98,-4.59,-0.08,-0.22,0.38,-19.21,-14.09,-10.7117597.00,-7.59,-2.98,-4.59,-0.08,-0.22,0.38,-19.21,-14.09,-10.7117609.00,-7.54,-3.04,-5.26,0.07,-0.45,0.43,-19.21,-14.09,-10.7117622.00,-7.54,-3.04,-5.26,0.07,-0.45,0.43,-19.21,-14.09,-10.7117634.00,-10.26,-2.87,-3.06,0.19,-0.42,0.30,-21.07,-12.22,-11.5017646.00,-9.25,-1.28,-5.20,-0.00,-0.03,0.13,-21.07,-12.22,-11.5017658.00,-9.25,-1.28,-5.20,-0.00,-0.03,0.13,-21.07,-12.22,-11.5017671.00,-8.29,-2.78,-4.10,0.20,-0.06,0.01,-21.07,-12.22,-11.5017682.00,-8.29,-2.78,-4.10,0.20,-0.06,0.01,-21.07,-12.22,-11.5017693.00,-8.49,-3.06,-3.65,0.28,0.02,0.05,-21.07,-12.22,-11.5017705.00,-9.47,-1.48,-2.84,0.19,0.05,0.14,-21.07,-12.22,-11.5017718.00,-9.47,-1.48,-2.84,0.19,0.05,0.14,-21.07,-12.22,-11.5017729.00,-9.38,-3.09,-2.86,0.01,0.09,0.08,-21.07,-12.22,-11.5017741.00,-9.38,-3.09,-2.86,0.01,0.09,0.08,-21.07,-12.22,-11.5017753.00,-8.93,-3.89,-3.64,-0.32,0.13,0.18,-18.18,-14.94,-11.8117766.00,-8.70,-2.05,-5.56,-0.65,0.01,0.19,-18.18,-14.94,-11.8117778.00,-8.70,-2.05,-5.56,-0.65,0.01,0.19,-18.18,-14.94,-11.8117790.00,-8.48,-1.54,-5.77,-0.43,-0.26,-0.13,-18.18,-14.94,-11.8117801.00,-8.48,-1.54,-5.77,-0.43,-0.26,-0.13,-18.18,-14.94,-11.8117815.00,-7.99,-2.39,-5.45,0.01,-0.36,-0.34,-18.18,-14.94,-11.8117827.00,-8.57,-2.92,-4.23,0.38,-0.30,-0.32,-18.18,-14.94,-11.8117839.00,-8.57,-2.92,-4.23,0.38,-0.30,-0.32,-18.18,-14.94,-11.8117851.00,-8.81,-3.11,-3.07,0.47,-0.20,-0.20,-18.18,-14.94,-11.8117864.00,-8.81,-3.11,-3.07,0.47,-0.20,-0.20,-18.18,-14.94,-11.8117876.00,-9.04,-3.33,-2.70,0.24,-0.04,-0.06,-17.35,-15.28,-10.2517888.00,-9.29,-4.80,-2.16,-0.22,0.05,0.11,-17.35,-15.28,-10.2517900.00,-9.29,-4.80,-2.16,-0.22,0.05,0.11,-17.35,-15.28,-10.2517913.00,-9.27,-2.48,-4.36,-0.81,0.07,0.32,-17.35,-15.28,-10.2517925.00,-8.38,-2.67,-4.06,-0.75,-0.12,0.22,-17.35,-15.28,-10.2517937.00,-8.38,-2.67,-4.06,-0.75,-0.12,0.22,-17.35,-15.28,-10.2517948.00,-7.96,-1.64,-5.95,-0.47,-0.14,0.14,-17.35,-15.28,-10.2517961.00,-7.96,-1.64,-5.95,-0.47,-0.14,0.14,-17.35,-15.28,-10.2517973.00,-8.49,-2.47,-4.49,0.12,-0.14,0.02,-17.35,-15.28,-10.2517984.00,-8.49,-2.47,-4.49,0.12,-0.14,0.02,-17.35,-15.28,-10.2517997.00,-8.54,-3.25,-3.33,0.44,0.12,0.13,-17.35,-15.28,-10.2518009.00,-9.13,-2.26,-4.13,0.46,0.34,0.22,-20.04,-12.73,-10.0918021.00,-9.13,-2.26,-4.13,0.46,0.34,0.22,-20.04,-12.73,-10.0918033.00,-12.02,-1.45,-1.93,0.43,0.13,0.01,-20.04,-12.73,-10.0918046.00,-11.35,-2.51,-1.78,0.09,0.34,-0.51,-20.04,-12.73,-10.0918058.00,-11.35,-2.51,-1.78,0.09,0.34,-0.51,-20.04,-12.73,-10.0918070.00,-8.22,-1.88,-4.12,-0.31,0.35,-0.68,-20.04,-12.73,-10.0918081.00,-8.22,-1.88,-4.12,-0.31,0.35,-0.68,-20.04,-12.73,-10.0918094.00,-9.18,-1.97,-1.20,-0.23,-0.23,-0.52,-20.04,-12.73,-10.0918106.00,-6.63,-3.56,-6.58,-0.33,0.04,-0.45,-20.04,-12.73,-10.0918116.00,-6.63,-3.56,-6.58,-0.33,0.04,-0.45,-20.04,-12.73,-10.0918128.00,-4.06,-4.05,-8.91,-0.05,0.31,-0.29,-19.00,-13.92,-11.8118142.00,-4.06,-4.05,-8.91,-0.05,0.31,-0.29,-19.00,-13.92,-11.8118154.00,-3.68,-5.27,-9.01,0.64,0.34,-0.06,-19.00,-13.92,-11.8118165.00,-9.02,-3.18,-4.97,0.99,0.01,0.34,-19.00,-13.92,-11.8118177.00,-9.02,-3.18,-4.97,0.99,0.01,0.34,-19.00,-13.92,-11.8118190.00,-12.00,-3.07,0.40,0.99,-0.21,0.23,-19.00,-13.92,-11.8118201.00,-12.00,-3.07,0.40,0.99,-0.21,0.23,-19.00,-13.92,-11.8118212.00,-9.66,-3.52,-0.40,0.20,0.00,0.03,-19.00,-13.92,-11.8118224.00,-9.66,-3.52,-0.40,0.20,0.00,0.03,-19.00,-13.92,-11.8118238.00,-8.16,-2.66,-5.60,-0.44,0.12,0.05,-19.00,-13.92,-11.8118250.00,-7.76,-3.18,-6.03,-0.20,-0.01,0.03,-19.21,-14.43,-11.9718262.00,-7.76,-3.18,-6.03,-0.20,-0.01,0.03,-19.21,-14.43,-11.9718274.00,-8.48,-2.67,-4.87,0.04,-0.16,0.08,-19.21,-14.43,-11.9718287.00,-9.17,-3.12,-3.30,0.12,-0.20,0.05,-19.21,-14.43,-11.9718298.00,-9.17,-3.12,-3.30,0.12,-0.20,0.05,-19.21,-14.43,-11.9718310.00,-8.39,-3.45,-3.88,-0.03,-0.12,0.02,-19.21,-14.43,-11.9718322.00,-8.39,-3.45,-3.88,-0.03,-0.12,0.02,-19.21,-14.43,-11.9718335.00,-7.34,-3.55,-5.32,-0.09,-0.16,0.06,-19.21,-14.43,-11.9718347.00,-8.76,-2.93,-4.51,0.04,-0.36,0.10,-19.21,-14.43,-11.9718359.00,-8.76,-2.93,-4.51,0.04,-0.36,0.10,-19.21,-14.43,-11.9718369.00,-8.78,-3.07,-3.82,0.00,-0.29,-0.04,-18.59,-14.26,-11.1818383.00,-8.78,-3.07,-3.82,0.00,-0.29,-0.04,-18.59,-14.26,-11.1818395.00,-8.47,-2.61,-4.80,0.08,-0.13,-0.10,-18.59,-14.26,-11.1818407.00,-8.03,-2.38,-4.94,0.40,-0.14,-0.15,-18.59,-14.26,-11.1818418.00,-8.03,-2.38,-4.94,0.40,-0.14,-0.15,-18.59,-14.26,-11.1818432.00,-8.52,-4.47,-2.84,0.76,-0.06,-0.17,-18.59,-14.26,-11.1818444.00,-8.52,-4.47,-2.84,0.76,-0.06,-0.17,-18.59,-14.26,-11.1818454.00,-9.23,-3.19,-2.40,0.47,0.09,0.02,-18.59,-14.26,-11.1818466.00,-8.85,-3.80,-2.63,0.13,0.17,0.06,-18.59,-14.26,-11.1818480.00,-8.85,-3.80,-2.63,0.13,0.17,0.06,-18.59,-14.26,-11.1818491.00,-8.67,-3.72,-3.62,-0.15,0.21,0.17,-18.59,-14.26,-11.1818502.00,-8.67,-3.72,-3.62,-0.15,0.21,0.17,-18.59,-14.26,-11.1818514.00,-8.90,-3.67,-3.70,-0.45,0.09,0.24,-18.80,-17.15,-10.0918527.00,-8.85,-1.56,-3.93,-0.68,-0.14,0.14,-18.80,-17.15,-10.0918539.00,-8.85,-1.56,-3.93,-0.68,-0.14,0.14,-18.80,-17.15,-10.0918552.00,-8.43,-3.27,-4.09,-0.39,-0.37,-0.25,-18.80,-17.15,-10.0918565.00,-8.43,-3.36,-3.96,-0.32,-0.50,-0.39,-18.80,-17.15,-10.0918576.00,-8.43,-3.36,-3.96,-0.32,-0.50,-0.39,-18.80,-17.15,-10.0918587.00,-7.96,-2.48,-5.56,-0.15,-0.48,-0.39,-18.80,-17.15,-10.0918598.00,-7.96,-2.48,-5.56,-0.15,-0.48,-0.39,-18.80,-17.15,-10.0918612.00,-7.89,-4.55,-4.05,0.28,-0.47,-0.45,-18.80,-17.15,-10.0918623.00,-7.89,-4.55,-4.05,0.28,-0.47,-0.45,-18.80,-17.15,-10.0918634.00,-8.24,-2.73,-4.13,0.28,-0.21,-0.20,-19.62,-16.13,-9.7818646.00,-8.15,-5.55,-2.95,0.45,0.09,-0.01,-19.62,-16.13,-9.7818658.00,-8.15,-5.55,-2.95,0.45,0.09,-0.01,-19.62,-16.13,-9.7818670.00,-8.88,-3.63,-4.00,-0.03,0.37,0.41,-19.62,-16.13,-9.7818682.00,-8.88,-3.63,-4.00,-0.03,0.37,0.41,-19.62,-16.13,-9.7818694.00,-9.45,-2.42,-3.92,-0.24,0.38,0.56,-19.62,-16.13,-9.7818708.00,-9.11,-3.59,-2.27,-0.37,0.28,0.55,-19.62,-16.13,-9.7818720.00,-9.11,-3.59,-2.27,-0.37,0.28,0.55,-19.62,-16.13,-9.7818732.00,-8.45,-4.59,-3.55,-0.68,0.22,0.47,-19.62,-16.13,-9.7818743.00,-8.45,-4.59,-3.55,-0.68,0.22,0.47,-19.62,-16.13,-9.7818755.00,-8.76,-2.48,-4.40,-0.80,0.09,0.43,-19.21,-13.75,-10.7118767.00,-8.54,-1.71,-4.63,-0.66,-0.08,0.21,-19.21,-13.75,-10.7118779.00,-8.54,-1.71,-4.63,-0.66,-0.08,0.21,-19.21,-13.75,-10.7118791.00,-8.20,-1.96,-5.98,-0.30,-0.21,-0.12,-19.21,-13.75,-10.7118804.00,-8.20,-1.96,-5.98,-0.30,-0.21,-0.12,-19.21,-13.75,-10.7118816.00,-8.04,-4.00,-4.03,0.20,-0.33,-0.30,-19.21,-13.75,-10.7118827.00,-8.54,-2.32,-4.44,0.23,-0.20,-0.13,-19.21,-13.75,-10.7118838.00,-8.54,-2.32,-4.44,0.23,-0.20,-0.13,-19.21,-13.75,-10.7118851.00,-8.45,-4.08,-3.03,0.35,-0.12,-0.09,-19.21,-13.75,-10.7118862.00,-8.45,-4.08,-3.03,0.35,-0.12,-0.09,-19.21,-13.75,-10.7118874.00,-8.99,-2.33,-3.54,0.09,0.12,0.19,-18.59,-14.60,-10.8718886.00,-9.50,-3.86,-1.42,0.02,0.16,0.15,-18.59,-14.60,-10.8718899.00,-9.50,-3.86,-1.42,0.02,0.16,0.15,-18.59,-14.60,-10.8718911.00,-9.86,-0.81,-4.53,-0.45,0.28,0.27,-18.59,-14.60,-10.8718923.00,-9.86,-0.81,-4.53,-0.45,0.28,0.27,-18.59,-14.60,-10.8718934.00,-8.88,-0.83,-6.38,-0.08,-0.01,-0.16,-18.59,-14.60,-10.8718948.00,-8.82,-3.81,-4.18,0.61,-0.03,-0.66,-18.59,-14.60,-10.8718959.00,-8.82,-3.81,-4.18,0.61,-0.03,-0.66,-18.59,-14.60,-10.8718971.00,-5.70,-3.84,-5.92,0.43,0.11,-0.64,-18.59,-14.60,-10.8718983.00,-5.70,-3.84,-5.92,0.43,0.11,-0.64,-18.59,-14.60,-10.8718997.00,-5.61,-5.00,-5.60,0.42,-0.27,-0.32,-18.18,-15.96,-9.3119010.00,-9.05,-3.39,-4.05,0.41,-0.53,0.18,-18.18,-15.96,-9.3119022.00,-9.05,-3.39,-4.05,0.41,-0.53,0.18,-18.18,-15.96,-9.3119034.00,-10.02,-2.85,-0.56,0.22,-0.37,0.18,-18.18,-15.96,-9.3119047.00,-9.39,-2.72,-3.24,-0.23,-0.02,0.08,-18.18,-15.96,-9.3119058.00,-9.39,-2.72,-3.24,-0.23,-0.02,0.08,-18.18,-15.96,-9.3119070.00,-8.95,-2.35,-5.02,-0.29,-0.09,0.01,-18.18,-15.96,-9.3119082.00,-8.95,-2.35,-5.02,-0.29,-0.09,0.01,-18.18,-15.96,-9.3119095.00,-9.39,-2.95,-4.01,-0.01,-0.21,-0.03,-18.18,-15.96,-9.3119106.00,-8.85,-3.06,-3.82,0.03,0.03,-0.04,-18.18,-15.96,-9.3119118.00,-8.85,-3.06,-3.82,0.03,0.03,-0.04,-18.18,-15.96,-9.3119130.00,-6.54,-4.43,-4.14,0.01,0.15,0.01,-18.80,-14.09,-10.7119143.00,-6.54,-4.43,-4.14,0.01,0.15,0.01,-18.80,-14.09,-10.7119155.00,-6.49,-4.38,-4.76,0.02,0.01,0.28,-18.80,-14.09,-10.7119167.00,-9.66,-2.96,-3.14,0.05,-0.27,0.45,-18.80,-14.09,-10.7119180.00,-9.66,-2.96,-3.14,0.05,-0.27,0.45,-18.80,-14.09,-10.7119191.00,-9.56,-2.77,-1.20,-0.14,-0.15,0.22,-18.80,-14.09,-10.7119203.00,-9.56,-2.77,-1.20,-0.14,-0.15,0.22,-18.80,-14.09,-10.7119215.00,-9.28,-1.99,-4.41,-0.39,0.05,0.06,-18.80,-14.09,-10.7119228.00,-8.85,-3.80,-3.09,-0.29,-0.16,-0.17,-18.80,-14.09,-10.7119239.00,-8.85,-3.80,-3.09,-0.29,-0.16,-0.17,-18.80,-14.09,-10.7119251.00,-8.44,-2.55,-5.03,-0.39,-0.13,-0.09,-19.62,-16.13,-9.7819263.00,-8.44,-2.55,-5.03,-0.39,-0.13,-0.09,-19.62,-16.13,-9.7819276.00,-8.44,-3.49,-4.78,-0.14,-0.08,-0.01,-19.62,-16.13,-9.7819288.00,-8.24,-4.11,-3.45,-0.01,-0.02,0.18,-19.62,-16.13,-9.7819300.00,-8.24,-4.11,-3.45,-0.01,-0.02,0.18,-19.62,-16.13,-9.7819312.00,-8.64,-2.50,-4.21,-0.05,0.11,0.33,-19.62,-16.13,-9.7819325.00,-8.84,-2.95,-3.26,0.01,0.01,0.16,-19.62,-16.13,-9.7819337.00,-8.84,-2.95,-3.26,0.01,0.01,0.16,-19.62,-16.13,-9.7819349.00,-8.75,-2.69,-4.13,-0.06,-0.02,0.04,-19.62,-16.13,-9.7819360.00,-8.75,-2.69,-4.13,-0.06,-0.02,0.04,-19.62,-16.13,-9.7819374.00,-8.89,-2.62,-3.91,-0.09,-0.08,-0.03,-19.62,-15.45,-12.2819386.00,-9.27,-2.50,-3.51,-0.17,-0.20,-0.16,-19.62,-15.45,-12.2819397.00,-9.27,-2.50,-3.51,-0.17,-0.20,-0.16,-19.62,-15.45,-12.2819407.00,-8.24,-4.51,-3.01,-0.28,-0.29,-0.28,-19.62,-15.45,-12.2819421.00,-8.24,-4.51,-3.01,-0.28,-0.29,-0.28,-19.62,-15.45,-12.2819433.00,-8.29,-2.30,-5.88,-0.33,-0.08,-0.01,-19.62,-15.45,-12.2819444.00,-8.29,-2.30,-5.88,-0.33,-0.08,-0.01,-19.62,-15.45,-12.2819455.00,-8.48,-4.29,-2.44,-0.01,0.01,0.20,-19.62,-15.45,-12.2819468.00,-9.49,-1.83,-3.98,-0.02,0.25,0.39,-19.62,-15.45,-12.2819479.00,-9.49,-1.83,-3.98,-0.02,0.25,0.39,-19.62,-15.45,-12.2819491.00,-13.95,0.06,-1.58,0.04,0.10,0.02,-21.48,-14.94,-9.6219503.00,-13.95,0.06,-1.58,0.04,0.10,0.02,-21.48,-14.94,-9.6219516.00,-11.83,-1.20,-0.02,-0.26,0.53,-0.92,-21.48,-14.94,-9.6219527.00,-8.10,-2.66,-3.54,-0.54,1.13,-1.35,-21.48,-14.94,-9.6219538.00,-8.10,-2.66,-3.54,-0.54,1.13,-1.35,-21.48,-14.94,-9.6219550.00,-4.90,-3.57,-7.43,-0.48,1.10,-1.18,-21.48,-14.94,-9.6219554.00,-4.90,-3.57,-7.43,-0.48,1.10,-1.18,-21.48,-14.94,-9.6219634.00,-5.93,-4.90,-6.03,0.48,-0.48,0.48,-17.76,-15.28,-10.2519711.00,-7.96,-2.98,-3.89,0.70,0.17,0.14,-17.76,-15.28,-10.2519791.00,-7.89,-3.53,-4.06,-0.16,0.37,-0.59,-18.18,-16.30,-9.9319880.00,-9.05,-4.30,-2.42,0.27,-0.08,-0.06,-17.35,-18.00,-10.5619890.00,-8.15,-4.30,-3.89,-0.17,-0.02,0.01,-17.35,-18.00,-10.5619902.00,-8.15,-4.30,-3.89,-0.17,-0.02,0.01,-17.35,-18.00,-10.5619914.00,-7.72,-3.73,-5.23,-0.25,-0.03,0.09,-17.35,-18.00,-10.5619928.00,-8.07,-3.48,-4.64,0.02,-0.11,0.10,-17.35,-18.00,-10.5619940.00,-8.07,-3.48,-4.64,0.02,-0.11,0.10,-17.35,-18.00,-10.5619951.00,-8.80,-3.57,-3.65,0.20,-0.13,0.06,-17.35,-18.00,-10.5619962.00,-8.80,-3.57,-3.65,0.20,-0.13,0.06,-17.35,-18.00,-10.5619976.00,-8.65,-3.69,-3.59,0.11,-0.06,-0.00,-17.35,-18.00,-10.5619988.00,-8.23,-3.65,-4.17,-0.02,-0.05,-0.03,-18.18,-17.32,-9.9319999.00,-8.23,-3.65,-4.17,-0.02,-0.05,-0.03,-18.18,-17.32,-9.9320013.00,-8.22,-3.84,-4.32,-0.01,-0.06,-0.02,-18.18,-17.32,-9.9320025.00,-8.22,-3.84,-4.32,-0.01,-0.06,-0.02,-18.18,-17.32,-9.9320036.00,-7.94,-3.79,-4.34,0.05,-0.06,0.03,-18.18,-17.32,-9.9320048.00,-8.63,-3.64,-3.83,0.11,-0.08,0.07,-18.18,-17.32,-9.9320061.00,-8.63,-3.64,-3.83,0.11,-0.08,0.07,-18.18,-17.32,-9.9320072.00,-8.37,-3.68,-3.83,0.08,-0.05,0.03,-18.18,-17.32,-9.9320084.00,-8.37,-3.68,-3.83,0.08,-0.05,0.03,-18.18,-17.32,-9.9320095.00,-7.15,-4.47,-4.67,0.04,-0.06,0.04,-18.18,-17.32,-9.9320108.00,-7.95,-3.84,-5.02,0.04,-0.21,0.20,-18.18,-17.32,-9.9320119.00,-7.95,-3.84,-5.02,0.04,-0.21,0.20,-18.18,-17.32,-9.9320131.00,-9.39,-3.77,-2.80,0.13,-0.28,0.10,-19.42,-18.00,-9.3120143.00,-9.39,-3.77,-2.80,0.13,-0.28,0.10,-19.42,-18.00,-9.3120156.00,-8.95,-3.34,-2.55,-0.04,-0.15,-0.03,-19.42,-18.00,-9.3120168.00,-8.63,-3.05,-4.12,-0.20,-0.13,-0.10,-19.42,-18.00,-9.3120180.00,-8.63,-3.05,-4.12,-0.20,-0.13,-0.10,-19.42,-18.00,-9.3120191.00,-8.18,-4.80,-3.96,-0.15,-0.28,-0.19,-19.42,-18.00,-9.3120204.00,-8.18,-4.80,-3.96,-0.15,-0.28,-0.19,-19.42,-18.00,-9.3120216.00,-8.24,-3.70,-3.88,-0.31,-0.23,-0.05,-19.42,-18.00,-9.3120228.00,-8.49,-3.42,-4.30,-0.19,-0.12,0.00,-19.42,-18.00,-9.3120238.00,-8.49,-3.42,-4.30,-0.19,-0.12,0.00,-19.42,-18.00,-9.3120252.00,-8.32,-3.81,-4.26,-0.04,-0.09,0.06,-19.42,-17.66,-9.6220264.00,-8.32,-3.81,-4.26,-0.04,-0.09,0.06,-19.42,-17.66,-9.6220276.00,-8.02,-3.93,-3.55,-0.05,-0.00,0.20,-19.42,-17.66,-9.6220287.00,-8.52,-3.41,-3.67,-0.04,0.03,0.17,-19.42,-17.66,-9.6220300.00,-8.52,-3.41,-3.67,-0.04,0.03,0.17,-19.42,-17.66,-9.6220312.00,-8.46,-3.68,-3.72,-0.07,-0.03,0.06,-19.42,-17.66,-9.6220324.00,-8.46,-3.68,-3.72,-0.07,-0.03,0.06,-19.42,-17.66,-9.6220336.00,-8.67,-3.31,-4.16,-0.22,-0.08,0.00,-19.42,-17.66,-9.6220349.00,-8.75,-2.88,-4.00,-0.25,-0.26,-0.14,-19.42,-17.66,-9.6220361.00,-8.75,-2.88,-4.00,-0.25,-0.26,-0.14,-19.42,-17.66,-9.6220371.00,-8.34,-4.42,-2.75,-0.14,-0.37,-0.28,-18.38,-18.17,-10.0920383.00,-8.34,-4.42,-2.75,-0.14,-0.37,-0.28,-18.38,-18.17,-10.0920397.00,-8.06,-3.44,-5.01,-0.19,-0.23,-0.14,-18.38,-18.17,-10.0920409.00,-8.31,-4.77,-3.37,0.08,-0.17,-0.05,-18.38,-18.17,-10.0920421.00,-8.31,-4.77,-3.37,0.08,-0.17,-0.05,-18.38,-18.17,-10.0920432.00,-8.56,-2.84,-4.26,0.03,-0.04,0.17,-18.38,-18.17,-10.0920446.00,-8.40,-3.81,-3.27,0.16,0.04,0.22,-18.38,-18.17,-10.0920458.00,-8.40,-3.81,-3.27,0.16,0.04,0.22,-18.38,-18.17,-10.0920469.00,-8.41,-4.10,-3.42,0.09,-0.00,0.12,-18.38,-18.17,-10.0920480.00,-8.41,-4.10,-3.42,0.09,-0.00,0.12,-18.38,-18.17,-10.0920493.00,-8.69,-3.47,-3.79,-0.07,-0.07,0.04,-17.76,-17.66,-9.6220504.00,-8.69,-3.47,-3.79,-0.07,-0.07,0.04,-17.76,-17.66,-9.6220516.00,-8.89,-2.49,-3.72,-0.23,-0.18,-0.06,-17.76,-17.66,-9.6220527.00,-8.53,-4.36,-2.85,-0.13,-0.33,-0.27,-17.76,-17.66,-9.6220541.00,-8.53,-4.36,-2.85,-0.13,-0.33,-0.27,-17.76,-17.66,-9.6220553.00,-8.17,-4.01,-4.21,-0.22,-0.24,-0.18,-17.76,-17.66,-9.6220563.00,-8.17,-4.01,-4.21,-0.22,-0.24,-0.18,-17.76,-17.66,-9.6220575.00,-8.38,-4.05,-3.83,-0.09,-0.10,-0.03,-17.76,-17.66,-9.6220589.00,-8.43,-4.79,-3.24,0.11,0.08,0.19,-17.76,-17.66,-9.6220600.00,-8.43,-4.79,-3.24,0.11,0.08,0.19,-17.76,-17.66,-9.6220611.00,-8.76,-2.55,-4.41,0.12,0.25,0.33,-17.76,-17.66,-9.6220623.00,-8.76,-2.55,-4.41,0.12,0.25,0.33,-17.76,-17.66,-9.6220637.00,-10.14,-3.11,-2.33,0.18,0.16,0.03,-17.14,-16.47,-10.0920649.00,-8.44,-2.96,-3.20,-0.15,0.19,-0.23,-17.14,-16.47,-10.0920661.00,-8.44,-2.96,-3.20,-0.15,0.19,-0.23,-17.14,-16.47,-10.0920674.00,-6.72,-4.80,-4.53,-0.26,-0.01,-0.31,-17.14,-16.47,-10.0920685.00,-6.72,-4.80,-4.53,-0.26,-0.01,-0.31,-17.14,-16.47,-10.0920696.00,-6.47,-4.72,-5.46,-0.27,-0.23,-0.04,-17.14,-16.47,-10.0920708.00,-7.97,-4.19,-4.59,-0.10,-0.43,0.21,-17.14,-16.47,-10.0920722.00,-7.97,-4.19,-4.59,-0.10,-0.43,0.21,-17.14,-16.47,-10.0920733.00,-9.11,-3.64,-2.67,-0.01,-0.31,0.16,-17.14,-16.47,-10.0920744.00,-9.11,-3.64,-2.67,-0.01,-0.31,0.16,-17.14,-16.47,-10.0920756.00,-8.58,-3.53,-3.90,0.01,-0.06,0.04,-20.24,-17.32,-9.9320769.00,-8.26,-3.45,-4.33,0.12,-0.05,0.01,-20.24,-17.32,-9.9320780.00,-8.26,-3.45,-4.33,0.12,-0.05,0.01,-20.24,-17.32,-9.9320791.00,-8.66,-3.27,-4.12,0.24,-0.05,-0.00,-20.24,-17.32,-9.9320803.00,-8.66,-3.27,-4.12,0.24,-0.05,-0.00,-20.24,-17.32,-9.9320816.00,-8.72,-4.31,-1.77,0.23,0.01,0.01,-20.24,-17.32,-9.9320828.00,-8.97,-3.19,-3.29,-0.09,0.24,0.19,-20.24,-17.32,-9.9320840.00,-8.97,-3.19,-3.29,-0.09,0.24,0.19,-20.24,-17.32,-9.9320851.00,-8.99,-4.43,-3.13,-0.18,0.20,0.15,-20.24,-17.32,-9.9320865.00,-8.99,-4.43,-3.13,-0.18,0.20,0.15,-20.24,-17.32,-9.9320877.00,-8.75,-3.73,-3.69,-0.51,0.13,0.28,-20.24,-17.32,-9.6220887.00,-8.71,-2.95,-4.47,-0.67,0.03,0.28,-20.24,-17.32,-9.6220899.00,-8.71,-2.95,-4.47,-0.67,0.03,0.28,-20.24,-17.32,-9.6220912.00,-8.14,-2.33,-5.81,-0.45,-0.17,0.03,-20.24,-17.32,-9.6220924.00,-8.14,-2.33,-5.81,-0.45,-0.17,0.03,-20.24,-17.32,-9.6220936.00,-8.11,-3.95,-3.98,0.07,-0.31,-0.21,-20.24,-17.32,-9.6220947.00,-8.55,-2.79,-4.11,0.15,-0.19,-0.12,-20.24,-17.32,-9.6220960.00,-8.55,-2.79,-4.11,0.15,-0.19,-0.12,-20.24,-17.32,-9.6220972.00,-8.60,-3.91,-2.93,0.15,-0.13,-0.10,-20.24,-17.32,-9.6220983.00,-8.60,-3.91,-2.93,0.15,-0.13,-0.10,-20.24,-17.32,-9.6220995.00,-8.82,-3.70,-3.10,-0.09,0.01,0.03,-19.42,-16.30,-10.5621009.00,-8.65,-3.76,-3.55,-0.38,0.07,0.15,-19.42,-16.30,-10.5621021.00,-8.65,-3.76,-3.55,-0.38,0.07,0.15,-19.42,-16.30,-10.5621033.00,-8.36,-3.79,-4.18,-0.56,0.08,0.25,-19.42,-16.30,-10.5621044.00,-8.36,-3.79,-4.18,-0.56,0.08,0.25,-19.42,-16.30,-10.5621058.00,-8.41,-2.98,-4.35,-0.44,0.06,0.27,-19.42,-16.30,-10.5621068.00,-8.60,-1.77,-5.25,-0.24,0.09,0.24,-19.42,-16.30,-10.5621079.00,-8.60,-1.77,-5.25,-0.24,0.09,0.24,-19.42,-16.30,-10.5621091.00,-8.64,-2.10,-4.51,0.00,-0.01,0.13,-19.42,-16.30,-10.5621105.00,-8.64,-2.10,-4.51,0.00,-0.01,0.13,-19.42,-16.30,-10.5621117.00,-8.72,-3.60,-3.11,0.06,-0.15,-0.05,-19.42,-16.30,-10.5621128.00,-9.51,-2.29,-3.78,-0.17,-0.21,-0.10,-19.00,-15.62,-10.5621139.00,-9.51,-2.29,-3.78,-0.17,-0.21,-0.10,-19.00,-15.62,-10.5621153.00,-8.47,-4.04,-3.40,-0.24,-0.34,-0.25,-19.00,-15.62,-10.5621165.00,-8.47,-4.04,-3.40,-0.24,-0.34,-0.25,-19.00,-15.62,-10.5621176.00,-8.13,-3.85,-4.89,-0.28,-0.19,-0.10,-19.00,-15.62,-10.5621188.00,-8.50,-3.58,-3.69,-0.14,-0.08,0.08,-19.00,-15.62,-10.5621201.00,-8.50,-3.58,-3.69,-0.14,-0.08,0.08,-19.00,-15.62,-10.5621212.00,-9.09,-2.74,-3.79,-0.01,0.09,0.17,-19.00,-15.62,-10.5621222.00,-9.09,-2.74,-3.79,-0.01,0.09,0.17,-19.00,-15.62,-10.5621234.00,-10.43,-2.16,-3.79,0.07,0.07,0.08,-19.00,-15.62,-10.5621248.00,-10.76,-2.06,-3.46,0.04,0.18,-0.27,-20.45,-15.45,-10.0921261.00,-10.76,-2.06,-3.46,0.04,0.18,-0.27,-20.45,-15.45,-10.0921273.00,-10.28,-2.10,-3.39,-0.06,0.30,-0.65,-20.45,-15.45,-10.0921287.00,-7.60,-3.76,-4.03,-0.14,0.36,-0.84,-20.45,-15.45,-10.0921299.00,-7.60,-3.76,-4.03,-0.14,0.36,-0.84,-20.45,-15.45,-10.0921311.00,-7.69,-2.78,-3.33,-0.25,-0.13,-0.57,-20.45,-15.45,-10.0921321.00,-7.69,-2.78,-3.33,-0.25,-0.13,-0.57,-20.45,-15.45,-10.0921335.00,-8.28,-2.76,-1.51,-0.12,-0.68,-0.30,-20.45,-15.45,-10.0921347.00,-7.17,-4.44,-4.00,-0.03,-0.49,-0.29,-20.45,-15.45,-10.0921359.00,-7.17,-4.44,-4.00,-0.03,-0.49,-0.29,-20.45,-15.45,-10.0921370.00,-4.71,-4.54,-7.42,0.14,-0.03,-0.24,-19.21,-16.81,-10.4021384.00,-4.71,-4.54,-7.42,0.14,-0.03,-0.24,-19.21,-16.81,-10.4021396.00,-5.01,-4.93,-5.70,0.73,0.10,-0.10,-19.21,-16.81,-10.4021407.00,-6.47,-5.02,-4.95,1.10,0.28,0.15,-19.21,-16.81,-10.4021418.00,-6.47,-5.02,-4.95,1.10,0.28,0.15,-19.21,-16.81,-10.4021432.00,-11.20,-4.01,-3.25,1.16,0.16,0.37,-19.21,-16.81,-10.4021444.00,-11.20,-4.01,-3.25,1.16,0.16,0.37,-19.21,-16.81,-10.4021455.00,-11.39,-3.56,-0.92,0.73,0.10,0.17,-19.21,-16.81,-10.4021466.00,-8.49,-3.40,-2.82,0.04,0.23,-0.03,-19.21,-16.81,-10.4021480.00,-8.49,-3.40,-2.82,0.04,0.23,-0.03,-19.21,-16.81,-10.4021492.00,-8.35,-3.78,-4.46,-0.25,0.15,-0.02,-19.62,-16.81,-10.4021503.00,-8.35,-3.78,-4.46,-0.25,0.15,-0.02,-19.62,-16.81,-10.4021515.00,-8.18,-3.90,-4.41,-0.24,0.08,0.06,-19.62,-16.81,-10.4021528.00,-8.19,-3.71,-4.49,-0.22,0.05,0.15,-19.62,-16.81,-10.4021539.00,-8.19,-3.71,-4.49,-0.22,0.05,0.15,-19.62,-16.81,-10.4021550.00,-8.61,-3.41,-4.02,-0.14,0.01,0.17,-19.62,-16.81,-10.4021561.00,-8.61,-3.41,-4.02,-0.14,0.01,0.17,-19.62,-16.81,-10.4021574.00,-8.54,-3.57,-3.70,-0.08,-0.00,0.10,-19.62,-16.81,-10.4021586.00,-8.54,-3.57,-3.70,-0.08,-0.00,0.10,-19.62,-16.81,-10.4021598.00,-8.56,-3.57,-3.82,-0.04,0.02,0.07,-19.62,-16.81,-10.4021609.00,-8.13,-3.85,-4.09,-0.00,0.02,0.04,-19.62,-16.81,-10.4021623.00,-8.13,-3.85,-4.09,-0.00,0.02,0.04,-19.62,-16.81,-10.4021635.00,-8.29,-3.61,-4.28,-0.00,-0.02,0.07,-18.59,-16.64,-10.8721646.00,-8.29,-3.61,-4.28,-0.00,-0.02,0.07,-18.59,-16.64,-10.8721657.00,-8.71,-3.26,-4.04,0.02,-0.06,0.07,-18.59,-16.64,-10.8721671.00,-8.68,-3.47,-3.71,0.03,-0.05,0.00,-18.59,-16.64,-10.8721683.00,-8.68,-3.47,-3.71,0.03,-0.05,0.00,-18.59,-16.64,-10.8721694.00,-8.45,-3.60,-3.96,-0.01,-0.02,-0.03,-18.59,-16.64,-10.8721704.00,-8.45,-3.60,-3.96,-0.01,-0.02,-0.03,-18.59,-16.64,-10.8721719.00,-8.44,-3.56,-3.94,-0.01,-0.02,-0.03,-18.59,-16.64,-10.8721730.00,-8.40,-3.57,-3.94,0.01,-0.03,-0.03,-18.59,-16.64,-10.8721742.00,-8.40,-3.57,-3.94,0.01,-0.03,-0.03,-18.59,-16.64,-10.8721755.00,-8.37,-3.74,-3.89,0.03,-0.03,-0.05,-18.80,-16.81,-11.3421767.00,-8.53,-3.62,-3.86,0.06,-0.01,-0.05,-18.80,-16.81,-11.3421778.00,-8.53,-3.62,-3.86,0.06,-0.01,-0.05,-18.80,-16.81,-11.3421790.00,-8.50,-3.68,-3.72,0.05,0.02,-0.08,-18.80,-16.81,-11.3421804.00,-8.50,-3.68,-3.72,0.05,0.02,-0.08,-18.80,-16.81,-11.3421816.00,-8.15,-3.82,-4.06,-0.01,0.03,-0.08,-18.80,-16.81,-11.3421826.00,-7.93,-3.88,-4.29,-0.03,0.01,-0.03,-18.80,-16.81,-11.3421838.00,-7.93,-3.88,-4.29,-0.03,0.01,-0.03,-18.80,-16.81,-11.3421852.00,-8.14,-3.88,-4.10,-0.00,-0.06,0.03,-18.80,-16.81,-11.3421864.00,-8.14,-3.88,-4.10,-0.00,-0.06,0.03,-18.80,-16.81,-11.3421875.00,-8.50,-3.68,-3.86,0.01,-0.09,0.06,-18.80,-17.83,-9.4621887.00,-8.51,-3.57,-3.82,-0.02,-0.06,0.04,-18.80,-17.83,-9.4621900.00,-8.51,-3.57,-3.82,-0.02,-0.06,0.04,-18.80,-17.83,-9.4621911.00,-8.16,-3.84,-3.93,-0.05,-0.06,0.01,-18.80,-17.83,-9.4621922.00,-8.16,-3.84,-3.93,-0.05,-0.06,0.01,-18.80,-17.83,-9.4621933.00,-8.29,-3.73,-4.06,-0.07,-0.10,0.04,-18.80,-17.83,-9.4621938.00,-8.29,-3.73,-4.06,-0.07,-0.10,0.04,-18.80,-17.83,-9.4622016.00,-8.18,-2.60,-5.01,0.00,-0.14,-0.04,-19.21,-17.83,-10.4022095.00,-8.85,-5.13,-2.31,-0.03,0.21,0.12,-19.21,-17.83,-10.4022173.00,-8.21,-3.44,-4.55,-0.13,-0.25,-0.12,-19.21,-17.83,-10.4022263.00,-8.12,-3.58,-4.26,0.68,0.15,0.40,-18.59,-16.64,-11.5022275.00,-8.29,-3.89,-3.88,0.77,0.13,0.28,-18.59,-16.64,-11.5022287.00,-8.56,-3.47,-2.06,0.70,-0.00,0.03,-18.59,-16.64,-11.5022299.00,-8.56,-3.47,-2.06,0.70,-0.00,0.03,-18.59,-16.64,-11.5022312.00,-8.74,-3.63,-2.72,0.37,-0.05,-0.20,-18.59,-16.64,-11.5022324.00,-8.74,-3.63,-2.72,0.37,-0.05,-0.20,-18.59,-16.64,-11.5022335.00,-8.95,-4.22,-2.83,-0.08,-0.18,-0.35,-18.59,-16.64,-11.5022347.00,-9.07,-4.06,-2.84,-0.52,-0.31,-0.34,-18.59,-16.64,-11.5022360.00,-9.07,-4.06,-2.84,-0.52,-0.31,-0.34,-18.59,-16.64,-11.5022372.00,-8.70,-4.18,-2.90,-0.82,-0.41,-0.32,-19.21,-18.51,-10.4022383.00,-8.70,-4.18,-2.90,-0.82,-0.41,-0.32,-19.21,-18.51,-10.4022395.00,-8.52,-4.30,-3.82,-1.10,-0.44,-0.28,-19.21,-18.51,-10.4022408.00,-7.70,-2.85,-6.00,-1.10,-0.44,-0.16,-19.21,-18.51,-10.4022419.00,-7.70,-2.85,-6.00,-1.10,-0.44,-0.16,-19.21,-18.51,-10.4022431.00,-7.69,-2.93,-6.05,-0.33,-0.35,-0.16,-19.21,-18.51,-10.4022444.00,-7.69,-2.93,-6.05,-0.33,-0.35,-0.16,-19.21,-18.51,-10.4022455.00,-8.00,-3.27,-3.95,0.33,-0.24,-0.17,-19.21,-18.51,-10.4022467.00,-8.00,-3.27,-3.95,0.33,-0.24,-0.17,-19.21,-18.51,-10.4022478.00,-7.87,-3.95,-2.92,0.56,-0.01,-0.14,-19.21,-18.51,-10.4022491.00,-8.62,-4.04,-2.40,0.38,0.23,0.03,-20.04,-17.83,-8.8422503.00,-8.62,-4.04,-2.40,0.38,0.23,0.03,-20.04,-17.83,-8.8422515.00,-9.51,-2.69,-2.95,-0.12,0.31,0.24,-20.04,-17.83,-8.8422526.00,-9.51,-2.69,-2.95,-0.12,0.31,0.24,-20.04,-17.83,-8.8422539.00,-9.16,-4.78,-1.96,-0.40,0.25,0.22,-20.04,-17.83,-8.8422551.00,-8.70,-4.31,-3.47,-0.90,0.29,0.45,-20.04,-17.83,-8.8422563.00,-8.70,-4.31,-3.47,-0.90,0.29,0.45,-20.04,-17.83,-8.8422575.00,-8.88,-2.77,-4.21,-1.05,0.14,0.54,-20.04,-17.83,-8.8422588.00,-8.80,-2.04,-3.86,-1.02,-0.17,0.33,-20.04,-17.83,-8.8422600.00,-8.80,-2.04,-3.86,-1.02,-0.17,0.33,-20.04,-17.83,-8.8422611.00,-7.76,-0.38,-6.92,-0.94,-0.35,0.07,-19.62,-14.77,-10.4022623.00,-7.76,-0.38,-6.92,-0.94,-0.35,0.07,-19.62,-14.77,-10.4022637.00,-7.69,-2.81,-6.38,-0.03,-0.37,-0.21,-19.62,-14.77,-10.4022649.00,-8.27,-4.19,-2.62,0.64,-0.32,-0.19,-19.62,-14.77,-10.4022661.00,-8.27,-4.19,-2.62,0.64,-0.32,-0.19,-19.62,-14.77,-10.4022672.00,-9.26,-1.99,-3.32,0.55,0.10,0.15,-19.62,-14.77,-10.4022685.00,-9.26,-1.99,-3.32,0.55,0.10,0.15,-19.62,-14.77,-10.4022697.00,-9.28,-3.10,-3.06,0.39,0.19,0.10,-19.62,-14.77,-10.4022708.00,-10.79,-2.59,-2.89,0.15,0.04,-0.03,-19.62,-14.77,-10.4022719.00,-10.79,-2.59,-2.89,0.15,0.04,-0.03,-19.62,-14.77,-10.4022733.00,-11.58,-2.13,-2.61,-0.17,-0.01,-0.40,-19.62,-14.77,-10.4022745.00,-11.58,-2.13,-2.61,-0.17,-0.01,-0.40,-19.62,-14.77,-10.4022757.00,-9.00,-2.75,-3.46,-0.31,0.15,-0.72,-21.89,-15.96,-11.1822769.00,-7.68,-1.93,-3.69,-0.38,-0.09,-0.55,-21.89,-15.96,-11.1822783.00,-7.68,-1.93,-3.69,-0.38,-0.09,-0.55,-21.89,-15.96,-11.1822794.00,-9.26,-2.02,-1.61,-0.29,-0.57,-0.37,-21.89,-15.96,-11.1822805.00,-9.26,-2.02,-1.61,-0.29,-0.57,-0.37,-21.89,-15.96,-11.1822817.00,-6.52,-4.09,-4.61,-0.34,-0.26,-0.47,-21.89,-15.96,-11.1822830.00,-4.30,-5.70,-7.01,-0.12,0.10,-0.33,-21.89,-15.96,-11.1822841.00,-4.30,-5.70,-7.01,-0.12,0.10,-0.33,-21.89,-15.96,-11.1822853.00,-4.59,-6.48,-6.76,0.28,0.24,-0.02,-21.89,-15.96,-11.1822866.00,-4.59,-6.48,-6.76,0.28,0.24,-0.02,-21.89,-15.96,-11.1822877.00,-6.40,-5.10,-6.27,0.53,0.24,0.33,-18.80,-16.13,-10.4022889.00,-10.82,-3.28,-1.96,0.71,-0.08,0.46,-18.80,-16.13,-10.4022901.00,-10.82,-3.28,-1.96,0.71,-0.08,0.46,-18.80,-16.13,-10.4022914.00,-11.05,-2.96,-0.81,0.35,-0.06,0.24,-18.80,-16.13,-10.4022926.00,-11.05,-2.96,-0.81,0.35,-0.06,0.24,-18.80,-16.13,-10.4022938.00,-9.10,-2.60,-3.44,-0.16,0.10,0.07,-18.80,-16.13,-10.4022950.00,-8.43,-3.28,-4.85,-0.20,0.09,-0.01,-18.80,-16.13,-10.4022962.00,-8.43,-3.28,-4.85,-0.20,0.09,-0.01,-18.80,-16.13,-10.4022974.00,-8.06,-3.53,-4.66,-0.11,0.05,0.01,-18.80,-16.13,-10.4022986.00,-8.06,-3.53,-4.66,-0.11,0.05,0.01,-18.80,-16.13,-10.4022998.00,-8.70,-3.35,-3.76,-0.06,-0.00,0.05,-20.45,-16.47,-11.6523011.00,-8.92,-3.40,-3.56,-0.08,0.01,0.03,-20.45,-16.47,-11.6523023.00,-8.92,-3.40,-3.56,-0.08,0.01,0.03,-20.45,-16.47,-11.6523035.00,-8.39,-3.75,-3.83,-0.14,0.02,-0.03,-20.45,-16.47,-11.6523046.00,-8.39,-3.75,-3.83,-0.14,0.02,-0.03,-20.45,-16.47,-11.6523059.00,-8.23,-3.63,-4.44,-0.17,0.00,-0.02,-20.45,-16.47,-11.6523070.00,-8.22,-3.45,-4.41,-0.12,-0.02,0.01,-20.45,-16.47,-11.6523082.00,-8.22,-3.45,-4.41,-0.12,-0.02,0.01,-20.45,-16.47,-11.6523093.00,-8.69,-3.13,-3.94,-0.05,-0.05,0.02,-20.45,-16.47,-11.6523105.00,-8.69,-3.13,-3.94,-0.05,-0.05,0.02,-20.45,-16.47,-11.6523117.00,-8.57,-3.43,-3.70,-0.04,-0.04,-0.02,-17.35,-16.64,-9.3123129.00,-8.32,-3.55,-4.05,-0.07,-0.05,-0.03,-17.35,-16.64,-9.3123141.00,-8.32,-3.55,-4.05,-0.07,-0.05,-0.03,-17.35,-16.64,-9.3123154.00,-7.99,-4.00,-4.38,-0.07,-0.07,-0.01,-17.35,-16.64,-9.3123165.00,-7.99,-4.00,-4.38,-0.07,-0.07,-0.01,-17.35,-16.64,-9.3123177.00,-8.09,-3.52,-4.35,-0.08,-0.11,0.07,-17.35,-16.64,-9.3123189.00,-8.48,-3.48,-3.83,-0.07,-0.19,0.09,-17.35,-16.64,-9.3123202.00,-8.48,-3.48,-3.83,-0.07,-0.19,0.09,-17.35,-16.64,-9.3123213.00,-8.50,-3.29,-3.85,-0.13,-0.22,0.07,-17.35,-16.64,-9.3123225.00,-8.50,-3.29,-3.85,-0.13,-0.22,0.07,-17.35,-16.64,-9.3123236.00,-8.49,-3.49,-4.34,-0.21,-0.16,0.02,-17.35,-16.64,-9.3123249.00,-8.48,-3.01,-4.59,-0.16,-0.08,0.03,-19.83,-15.28,-10.2523260.00,-8.48,-3.01,-4.59,-0.16,-0.08,0.03,-19.83,-15.28,-10.2523270.00,-8.55,-3.37,-3.82,0.01,-0.13,-0.00,-19.83,-15.28,-10.2523282.00,-8.55,-3.37,-3.82,0.01,-0.13,-0.00,-19.83,-15.28,-10.2523296.00,-8.57,-3.38,-3.70,0.03,-0.11,0.00,-19.83,-15.28,-10.2523307.00,-8.57,-3.38,-3.70,0.03,-0.11,0.00,-19.83,-15.28,-10.2523318.00,-8.51,-3.34,-4.00,-0.02,-0.08,0.02,-19.83,-15.28,-10.2523331.00,-8.52,-3.28,-3.96,-0.01,-0.07,0.01,-19.83,-15.28,-10.2523342.00,-8.52,-3.28,-3.96,-0.01,-0.07,0.01,-19.83,-15.28,-10.2523353.00,-8.46,-2.96,-4.13,0.05,-0.08,-0.02,-19.83,-15.28,-10.2523364.00,-8.46,-2.96,-4.13,0.05,-0.08,-0.02,-19.83,-15.28,-10.2523378.00,-8.17,-3.25,-4.22,0.20,-0.04,-0.08,-19.21,-16.13,-11.6523390.00,-8.28,-4.01,-3.78,0.37,0.06,-0.08,-19.21,-16.13,-11.6523400.00,-8.28,-4.01,-3.78,0.37,0.06,-0.08,-19.21,-16.13,-11.6523412.00,-8.91,-4.01,-3.44,0.28,0.14,0.05,-19.21,-16.13,-11.6523426.00,-8.91,-4.01,-3.44,0.28,0.14,0.05,-19.21,-16.13,-11.6523437.00,-8.70,-4.39,-2.78,0.05,0.20,0.14,-19.21,-16.13,-11.6523448.00,-8.80,-3.37,-3.36,-0.21,0.22,0.20,-19.21,-16.13,-11.6523460.00,-8.80,-3.37,-3.36,-0.21,0.22,0.20,-19.21,-16.13,-11.6523473.00,-9.08,-4.27,-2.87,-0.56,0.06,0.20,-19.21,-16.13,-11.6523484.00,-9.08,-4.27,-2.87,-0.56,0.06,0.20,-19.21,-16.13,-11.6523496.00,-8.66,-2.37,-4.42,-0.97,-0.16,0.18,-21.69,-15.11,-11.9723508.00,-8.91,-3.17,-3.85,-0.78,-0.32,-0.07,-21.69,-15.11,-11.9723521.00,-8.91,-3.17,-3.85,-0.78,-0.32,-0.07,-21.69,-15.11,-11.9723533.00,-8.76,-2.05,-4.95,-0.70,-0.35,-0.15,-21.69,-15.11,-11.9723545.00,-8.76,-2.05,-4.95,-0.70,-0.35,-0.15,-21.69,-15.11,-11.9723557.00,-8.20,-1.76,-6.41,-0.45,-0.43,-0.30,-21.69,-15.11,-11.9723570.00,-7.54,-2.97,-5.79,0.24,-0.46,-0.45,-21.69,-15.11,-11.9723581.00,-7.54,-2.97,-5.79,0.24,-0.46,-0.45,-21.69,-15.11,-11.9723593.00,-8.55,-3.29,-3.83,0.69,-0.40,-0.46,-21.69,-15.11,-11.9723605.00,-8.55,-3.29,-3.83,0.69,-0.40,-0.46,-21.69,-15.11,-11.9723618.00,-8.14,-5.03,-2.73,0.65,-0.13,-0.31,-21.07,-15.96,-10.5623630.00,-8.06,-4.95,-3.27,0.21,0.29,0.13,-21.07,-15.96,-10.5623642.00,-8.06,-4.95,-3.27,0.21,0.29,0.13,-21.07,-15.96,-10.5623653.00,-8.75,-4.10,-3.88,-0.20,0.41,0.46,-21.07,-15.96,-10.5623657.00,-8.75,-4.10,-3.88,-0.20,0.41,0.46,-21.07,-15.96,-10.5623737.00,-8.42,-2.43,-3.85,-0.65,0.02,0.33,-21.07,-15.96,-10.5623815.00,-8.17,-3.33,-3.78,0.69,-0.24,-0.42,-19.62,-12.73,-11.6523893.00,-9.33,-3.17,-4.53,-0.70,0.17,0.42,-20.45,-14.09,-11.3423983.00,-8.31,-2.21,-5.12,0.38,-0.36,-0.09,-20.45,-14.09,-11.3423995.00,-8.35,-2.75,-3.98,0.67,-0.37,-0.19,-20.45,-12.73,-12.5924006.00,-8.35,-2.75,-3.98,0.67,-0.37,-0.19,-20.45,-12.73,-12.5924018.00,-8.31,-3.05,-3.85,0.70,-0.12,-0.09,-20.45,-12.73,-12.5924032.00,-8.82,-2.96,-3.13,0.54,-0.02,-0.11,-20.45,-12.73,-12.5924044.00,-8.82,-2.96,-3.13,0.54,-0.02,-0.11,-20.45,-12.73,-12.5924055.00,-9.26,-2.69,-1.68,0.41,-0.02,-0.23,-20.45,-12.73,-12.5924069.00,-9.86,-2.71,-2.59,0.05,0.17,-0.34,-20.45,-12.73,-12.5924081.00,-9.86,-2.71,-2.59,0.05,0.17,-0.34,-20.45,-12.73,-12.5924092.00,-12.51,-3.60,-0.38,-0.22,0.10,-0.45,-20.45,-12.73,-12.5924104.00,-12.51,-3.60,-0.38,-0.22,0.10,-0.45,-20.45,-12.73,-12.5924118.00,-9.58,-2.66,-3.60,-0.61,0.56,-0.53,-19.21,-14.09,-10.7124130.00,-5.97,-2.06,-6.24,-0.44,0.45,-0.36,-19.21,-14.09,-10.7124141.00,-5.97,-2.06,-6.24,-0.44,0.45,-0.36,-19.21,-14.09,-10.7124152.00,-10.49,-1.36,-0.26,0.01,-0.43,0.03,-19.21,-14.09,-10.7124165.00,-10.49,-1.36,-0.26,0.01,-0.43,0.03,-19.21,-14.09,-10.7124177.00,-6.61,-3.52,-6.35,-0.13,-0.11,-0.04,-19.21,-14.09,-10.7124188.00,-6.20,-4.01,-5.99,0.12,-0.15,0.15,-19.21,-14.09,-10.7124200.00,-6.20,-4.01,-5.99,0.12,-0.15,0.15,-19.21,-14.09,-10.7124214.00,-5.46,-4.75,-6.20,0.43,0.04,0.21,-19.21,-14.09,-10.7124226.00,-5.46,-4.75,-6.20,0.43,0.04,0.21,-19.21,-14.09,-10.7124237.00,-6.94,-4.47,-6.51,0.69,0.28,0.19,-19.21,-14.09,-10.7124248.00,-7.92,-5.35,-6.39,0.90,0.41,-0.01,-19.42,-15.28,-11.1824262.00,-7.92,-5.35,-6.39,0.90,0.41,-0.01,-19.42,-15.28,-11.1824274.00,-10.09,-3.60,-2.89,0.81,0.22,-0.12,-19.42,-15.28,-11.1824285.00,-10.09,-3.60,-2.89,0.81,0.22,-0.12,-19.42,-15.28,-11.1824296.00,-9.62,-3.44,-1.91,0.38,0.19,-0.33,-19.42,-15.28,-11.1824309.00,-8.83,-3.14,-3.17,-0.06,0.13,-0.37,-19.42,-15.28,-11.1824321.00,-8.83,-3.14,-3.17,-0.06,0.13,-0.37,-19.42,-15.28,-11.1824333.00,-8.06,-3.43,-4.53,-0.23,0.06,-0.31,-19.42,-15.28,-11.1824344.00,-8.06,-3.43,-4.53,-0.23,0.06,-0.31,-19.42,-15.28,-11.1824358.00,-7.75,-3.59,-5.04,-0.13,0.00,-0.19,-19.42,-15.28,-11.1824370.00,-8.04,-3.59,-4.31,0.04,-0.07,-0.09,-17.97,-16.47,-10.7124382.00,-8.04,-3.59,-4.31,0.04,-0.07,-0.09,-17.97,-16.47,-10.7124393.00,-8.81,-3.39,-3.50,0.09,-0.12,-0.04,-17.97,-16.47,-10.7124406.00,-8.81,-3.39,-3.50,0.09,-0.12,-0.04,-17.97,-16.47,-10.7124418.00,-8.79,-3.62,-3.74,0.03,-0.07,-0.05,-17.97,-16.47,-10.7124430.00,-7.99,-4.03,-4.46,-0.05,-0.04,-0.07,-17.97,-16.47,-10.7124441.00,-7.99,-4.03,-4.46,-0.05,-0.04,-0.07,-17.97,-16.47,-10.7124454.00,-8.12,-4.01,-4.29,-0.08,-0.08,0.00,-17.97,-16.47,-10.7124466.00,-8.12,-4.01,-4.29,-0.08,-0.08,0.00,-17.97,-16.47,-10.7124478.00,-8.02,-4.05,-3.98,-0.15,-0.13,0.05,-17.97,-16.47,-10.7124490.00,-7.85,-3.80,-4.41,-0.24,-0.20,0.10,-17.97,-15.79,-10.0924503.00,-7.85,-3.80,-4.41,-0.24,-0.20,0.10,-17.97,-15.79,-10.0924515.00,-7.29,-4.12,-4.72,-0.19,-0.33,0.13,-17.97,-15.79,-10.0924527.00,-7.29,-4.12,-4.72,-0.19,-0.33,0.13,-17.97,-15.79,-10.0924540.00,-10.98,-2.75,-3.00,-0.16,-0.49,0.17,-17.97,-15.79,-10.0924552.00,-8.64,-2.08,-4.55,-0.21,-0.27,0.03,-17.97,-15.79,-10.0924564.00,-8.64,-2.08,-4.55,-0.21,-0.27,0.03,-17.97,-15.79,-10.0924575.00,-8.11,-2.90,-4.80,0.17,-0.26,-0.11,-17.97,-15.79,-10.0924589.00,-8.10,-4.40,-4.06,0.61,-0.17,-0.16,-17.97,-15.79,-10.0924601.00,-8.10,-4.40,-4.06,0.61,-0.17,-0.16,-17.97,-15.79,-10.0924613.00,-8.74,-3.86,-2.34,0.63,-0.03,-0.04,-20.04,-17.49,-10.0924624.00,-8.74,-3.86,-2.34,0.63,-0.03,-0.04,-20.04,-17.49,-10.0924628.00,-9.19,-4.83,-1.25,0.43,0.11,-0.00,-20.04,-17.49,-10.0924705.00,-10.25,-2.38,-2.51,-0.73,0.05,0.19,-20.04,-17.49,-10.0924784.00,-8.92,-3.38,-4.08,0.12,-0.38,0.26,-18.18,-14.94,-10.8724862.00,-8.61,-4.36,-2.33,0.08,0.04,0.09,-18.18,-14.94,-10.8724952.00,-8.03,-2.16,-5.90,-0.15,-0.18,-0.09,-17.14,-15.11,-10.0924963.00,-8.03,-2.16,-5.90,-0.15,-0.18,-0.09,-17.14,-15.11,-10.0924975.00,-8.44,-3.34,-3.66,0.35,-0.28,-0.20,-17.14,-15.11,-10.0924987.00,-8.44,-3.34,-3.66,0.35,-0.28,-0.20,-17.14,-15.11,-10.0925000.00,-8.58,-3.07,-3.62,0.29,-0.16,-0.12,-19.62,-15.45,-10.0925012.00,-8.55,-3.75,-3.35,0.24,-0.07,-0.10,-19.62,-15.45,-10.0925024.00,-8.55,-3.75,-3.35,0.24,-0.07,-0.10,-19.62,-15.45,-10.0925036.00,-8.34,-4.90,-2.59,-0.02,0.07,0.06,-19.62,-15.45,-10.0925049.00,-8.86,-3.91,-3.52,-0.35,0.14,0.18,-19.62,-15.45,-10.0925061.00,-8.86,-3.91,-3.52,-0.35,0.14,0.18,-19.62,-15.45,-10.0925073.00,-8.69,-3.31,-2.74,-0.56,0.06,0.24,-19.62,-15.45,-10.0925084.00,-8.69,-3.31,-2.74,-0.56,0.06,0.24,-19.62,-15.45,-10.0925098.00,-8.78,-2.35,-4.46,-0.77,-0.02,0.22,-19.62,-15.45,-10.0925110.00,-7.82,-2.06,-5.96,-0.55,-0.14,0.07,-20.86,-13.07,-11.3425120.00,-7.82,-2.06,-5.96,-0.55,-0.14,0.07,-20.86,-13.07,-11.3425132.00,-7.92,-4.19,-4.53,0.02,-0.15,-0.01,-20.86,-13.07,-11.3425145.00,-7.92,-4.19,-4.53,0.02,-0.15,-0.01,-20.86,-13.07,-11.3425155.00,-8.76,-2.35,-4.09,0.13,-0.01,0.13,-20.86,-13.07,-11.3425167.00,-8.76,-2.35,-4.09,0.13,-0.01,0.13,-20.86,-13.07,-11.3425179.00,-9.09,-2.81,-3.35,0.20,0.06,0.05,-20.86,-13.07,-11.3425193.00,-10.90,-1.75,-3.01,0.05,0.02,-0.07,-20.86,-13.07,-11.3425205.00,-10.90,-1.75,-3.01,0.05,0.02,-0.07,-20.86,-13.07,-11.3425217.00,-9.52,-2.81,-3.07,-0.14,0.16,-0.43,-20.86,-13.07,-11.3425231.00,-7.63,-3.40,-4.78,-0.30,0.31,-0.54,-20.86,-13.07,-11.3425241.00,-7.63,-3.40,-4.78,-0.30,0.31,-0.54,-20.86,-13.07,-11.3425253.00,-6.69,-4.07,-5.66,-0.32,0.14,-0.41,-19.21,-13.75,-11.6525265.00,-6.69,-4.07,-5.66,-0.32,0.14,-0.41,-19.21,-13.75,-11.6525278.00,-7.05,-4.22,-5.02,-0.25,-0.07,-0.21,-19.21,-13.75,-11.6525290.00,-7.46,-3.83,-4.60,-0.16,-0.15,-0.01,-19.21,-13.75,-11.6525302.00,-7.46,-3.83,-4.60,-0.16,-0.15,-0.01,-19.21,-13.75,-11.6525313.00,-7.64,-3.59,-4.52,-0.04,-0.21,0.14,-19.21,-13.75,-11.6525326.00,-7.64,-3.59,-4.52,-0.04,-0.21,0.14,-19.21,-13.75,-11.6525338.00,-8.17,-3.35,-4.64,0.06,-0.28,0.26,-19.21,-13.75,-11.6525351.00,-7.99,-3.34,-4.36,0.15,-0.36,0.32,-19.21,-13.75,-11.6525363.00,-7.99,-3.34,-4.36,0.15,-0.36,0.32,-19.21,-13.75,-11.6525377.00,-9.33,-2.92,-4.14,0.19,-0.45,0.36,-19.42,-12.90,-10.8725389.00,-8.91,-2.91,-3.62,0.08,-0.26,0.17,-19.42,-12.90,-10.8725400.00,-8.91,-2.91,-3.62,0.08,-0.26,0.17,-19.42,-12.90,-10.8725411.00,-8.53,-2.28,-4.77,0.02,-0.13,0.06,-19.42,-12.90,-10.8725425.00,-8.53,-2.28,-4.77,0.02,-0.13,0.06,-19.42,-12.90,-10.8725437.00,-8.44,-2.93,-4.28,0.27,-0.13,-0.04,-19.42,-12.90,-10.8725448.00,-8.55,-3.27,-4.40,0.38,-0.02,-0.01,-19.42,-12.90,-10.8725460.00,-8.55,-3.27,-4.40,0.38,-0.02,-0.01,-19.42,-12.90,-10.8725473.00,-9.14,-3.49,-2.90,0.28,0.07,0.09,-19.42,-12.90,-10.8725485.00,-9.14,-3.49,-2.90,0.28,0.07,0.09,-19.42,-12.90,-10.8725497.00,-9.20,-2.75,-2.88,0.00,0.13,0.19,-18.59,-13.92,-12.7525508.00,-9.20,-2.75,-2.88,0.00,0.13,0.19,-18.59,-13.92,-12.7525521.00,-9.02,-4.17,-2.52,-0.25,0.18,0.26,-18.59,-13.92,-12.7525532.00,-8.63,-2.40,-4.71,-0.70,0.13,0.36,-18.59,-13.92,-12.7525544.00,-8.63,-2.40,-4.71,-0.70,0.13,0.36,-18.59,-13.92,-12.7525556.00,-8.52,-2.52,-3.50,-0.57,-0.11,0.16,-18.59,-13.92,-12.7525569.00,-8.41,-2.44,-5.34,-0.38,-0.18,-0.04,-18.59,-13.92,-12.7525581.00,-8.41,-2.44,-5.34,-0.38,-0.18,-0.04,-18.59,-13.92,-12.7525593.00,-8.17,-2.41,-5.44,-0.02,-0.28,-0.23,-18.59,-13.92,-12.7525604.00,-8.17,-2.41,-5.44,-0.02,-0.28,-0.23,-18.59,-13.92,-12.7525617.00,-8.12,-3.16,-4.32,0.26,-0.30,-0.32,-20.65,-13.58,-10.8725629.00,-8.39,-2.73,-4.21,0.24,-0.19,-0.26,-20.65,-13.58,-10.8725641.00,-8.39,-2.73,-4.21,0.24,-0.19,-0.26,-20.65,-13.58,-10.8725655.00,-8.82,-3.30,-3.06,0.21,-0.11,-0.14,-20.65,-13.58,-10.8725667.00,-8.82,-3.30,-3.06,0.21,-0.11,-0.14,-20.65,-13.58,-10.8725679.00,-8.66,-2.95,-2.92,-0.03,0.01,0.03,-20.65,-13.58,-10.8725691.00,-9.23,-4.15,-2.13,-0.21,0.12,0.15,-20.65,-13.58,-10.8725704.00,-9.23,-4.15,-2.13,-0.21,0.12,0.15,-20.65,-13.58,-10.8725714.00,-9.28,-2.94,-3.55,-0.61,0.24,0.45,-20.65,-13.58,-10.8725726.00,-9.28,-2.94,-3.55,-0.61,0.24,0.45,-20.65,-13.58,-10.8725738.00,-9.25,-1.69,-4.53,-0.66,0.15,0.32,-21.89,-12.22,-10.8725751.00,-11.08,-1.64,-2.98,-0.34,0.01,-0.10,-21.89,-12.22,-10.8725763.00,-11.08,-1.64,-2.98,-0.34,0.01,-0.10,-21.89,-12.22,-10.8725775.00,-9.21,-2.19,-3.80,-0.43,0.38,-0.57,-21.89,-12.22,-10.8725786.00,-9.21,-2.19,-3.80,-0.43,0.38,-0.57,-21.89,-12.22,-10.8725799.00,-6.34,-3.11,-5.77,-0.48,0.41,-0.69,-21.89,-12.22,-10.8725811.00,-5.78,-3.92,-7.27,-0.25,0.04,-0.53,-21.89,-12.22,-10.8725823.00,-5.78,-3.92,-7.27,-0.25,0.04,-0.53,-21.89,-12.22,-10.8725835.00,-5.56,-3.67,-6.86,0.00,-0.35,-0.32,-21.89,-12.22,-10.8725848.00,-5.56,-3.67,-6.86,0.00,-0.35,-0.32,-21.89,-12.22,-10.8725859.00,-8.00,-2.91,-4.77,0.33,-0.76,-0.08,-21.89,-12.22,-10.8725871.00,-9.40,-3.78,-2.47,0.48,-0.85,0.01,-18.80,-12.73,-11.9725883.00,-9.40,-3.78,-2.47,0.48,-0.85,0.01,-18.80,-12.73,-11.9725896.00,-9.88,-2.68,-2.89,0.05,-0.49,0.09,-18.80,-12.73,-11.9725908.00,-9.88,-2.68,-2.89,0.05,-0.49,0.09,-18.80,-12.73,-11.9725920.00,-8.68,-4.36,-3.64,-0.08,-0.07,0.09,-18.80,-12.73,-11.9725933.00,-8.63,-3.12,-4.55,-0.10,0.10,0.44,-18.80,-12.73,-11.9725946.00,-8.63,-3.12,-4.55,-0.10,0.10,0.44,-18.80,-12.73,-11.9725957.00,-8.48,-2.95,-4.38,0.19,0.14,0.60,-18.80,-12.73,-11.9725969.00,-8.46,-2.09,-4.98,0.34,0.20,0.66,-18.80,-12.73,-11.9725981.00,-8.46,-2.09,-4.98,0.34,0.20,0.66,-18.80,-12.73,-11.9725994.00,-8.45,-2.68,-4.21,0.43,0.15,0.53,-20.86,-12.39,-10.4026006.00,-8.45,-2.68,-4.21,0.43,0.15,0.53,-20.86,-12.39,-10.4026018.00,-8.97,-2.30,-3.69,0.37,0.01,0.34,-20.86,-12.39,-10.4026029.00,-8.91,-3.99,-1.44,0.20,-0.17,0.08,-20.86,-12.39,-10.4026042.00,-8.91,-3.99,-1.44,0.20,-0.17,0.08,-20.86,-12.39,-10.4026054.00,-9.17,-1.05,-4.64,-0.41,-0.13,-0.01,-20.86,-12.39,-10.4026066.00,-9.17,-1.05,-4.64,-0.41,-0.13,-0.01,-20.86,-12.39,-10.4026077.00,-8.80,-2.41,-3.31,-0.38,-0.35,-0.32,-20.86,-12.39,-10.4026091.00,-9.03,-3.56,-2.85,-0.40,-0.34,-0.35,-20.86,-12.39,-10.4026103.00,-9.03,-3.56,-2.85,-0.40,-0.34,-0.35,-20.86,-12.39,-10.4026115.00,-9.04,-2.11,-3.76,-0.46,-0.15,-0.20,-19.21,-11.71,-10.4026127.00,-9.04,-2.11,-3.76,-0.46,-0.15,-0.20,-19.21,-11.71,-10.4026141.00,-10.77,-2.20,-3.34,-0.33,-0.06,-0.26,-19.21,-11.71,-10.4026153.00,-8.50,-2.61,-4.42,-0.39,0.17,-0.49,-19.21,-11.71,-10.4026164.00,-8.50,-2.61,-4.42,-0.39,0.17,-0.49,-19.21,-11.71,-10.4026178.00,-7.16,-2.57,-5.43,-0.27,0.05,-0.58,-19.21,-11.71,-10.4026189.00,-6.83,-3.98,-5.21,0.05,-0.21,-0.58,-19.21,-11.71,-10.4026200.00,-6.83,-3.98,-5.21,0.05,-0.21,-0.58,-19.21,-11.71,-10.4026212.00,-6.35,-3.90,-5.53,0.11,-0.39,-0.43,-19.21,-11.71,-10.4026225.00,-6.35,-3.90,-5.53,0.11,-0.39,-0.43,-19.21,-11.71,-10.4026236.00,-7.74,-3.71,-4.46,0.20,-0.66,-0.14,-21.69,-13.41,-9.7826247.00,-7.74,-3.71,-4.46,0.20,-0.66,-0.14,-21.69,-13.41,-9.7826259.00,-12.92,-2.01,-1.71,0.23,-0.61,0.18,-21.69,-13.41,-9.7826273.00,-9.35,-2.94,-2.13,0.07,-0.16,0.10,-21.69,-13.41,-9.7826285.00,-9.35,-2.94,-2.13,0.07,-0.16,0.10,-21.69,-13.41,-9.7826296.00,-8.73,-3.54,-4.63,-0.05,0.16,0.31,-21.69,-13.41,-9.7826307.00,-8.73,-3.54,-4.63,-0.05,0.16,0.31,-21.69,-13.41,-9.7826320.00,-8.50,-2.62,-5.05,0.13,0.24,0.62,-21.69,-13.41,-9.7826332.00,-8.70,-2.50,-4.22,0.34,0.26,0.74,-21.69,-13.41,-9.7826344.00,-8.70,-2.50,-4.22,0.34,0.26,0.74,-21.69,-13.41,-9.7826355.00,-8.67,-2.82,-3.74,0.32,0.19,0.60,-21.69,-13.41,-9.7826359.00,-8.67,-2.82,-3.74,0.32,0.19,0.60,-21.69,-13.41,-9.7826439.00,-9.03,-1.89,-3.85,-0.44,-0.42,-0.21,-19.42,-12.56,-9.6226516.00,-11.34,-1.93,-3.07,-0.31,0.39,-0.67,-23.96,-11.88,-10.5626595.00,-9.00,-3.19,-3.40,0.31,-0.11,0.48,-23.96,-11.88,-10.5626685.00,-9.81,-2.32,-2.86,0.02,-0.23,0.45,-20.65,-12.22,-10.8726697.00,-9.46,-3.01,-2.33,-0.19,-0.05,0.19,-20.65,