time,ax,ay,az,gx,gy,gz,mx,my,mz21.00,-0.48,5.94,-7.98,-0.02,-0.04,-0.01,12.81,-0.31,-19.6332.00,-0.49,5.95,-7.98,-0.02,-0.04,-0.01,12.81,-0.31,-19.6343.00,-0.49,5.95,-7.98,-0.02,-0.04,-0.01,12.81,-0.31,-19.63108.00,-0.49,5.94,-7.97,-0.03,-0.04,-0.01,10.95,-1.85,-20.09119.00,-0.49,5.94,-7.97,-0.03,-0.04,-0.01,10.95,-1.85,-20.09130.00,-0.49,5.96,-7.99,-0.02,-0.04,-0.01,10.95,-1.85,-20.09141.00,-0.49,5.96,-7.99,-0.02,-0.04,-0.01,10.95,-1.85,-20.09155.00,-0.49,5.95,-7.99,-0.02,-0.04,-0.01,10.95,-1.85,-20.09167.00,-0.49,5.95,-7.99,-0.02,-0.04,-0.01,10.95,-1.85,-20.09178.00,-0.49,5.94,-7.99,-0.02,-0.04,-0.01,10.12,-2.19,-19.47190.00,-0.49,5.93,-7.98,-0.03,-0.04,-0.01,10.12,-2.19,-19.47202.00,-0.49,5.93,-7.98,-0.03,-0.04,-0.01,10.12,-2.19,-19.47215.00,-0.49,5.97,-7.97,-0.03,-0.04,-0.01,10.12,-2.19,-19.47227.00,-0.49,5.97,-7.97,-0.03,-0.04,-0.01,10.12,-2.19,-19.47239.00,-0.48,5.94,-7.94,-0.02,-0.04,-0.01,10.12,-2.19,-19.47251.00,-0.49,5.94,-7.98,-0.02,-0.04,-0.01,10.12,-2.19,-19.47264.00,-0.49,5.94,-7.98,-0.02,-0.04,-0.01,10.12,-2.19,-19.47276.00,-0.49,5.93,-7.96,-0.02,-0.04,-0.01,10.12,-2.19,-19.47288.00,-0.48,5.94,-7.96,-0.02,-0.04,-0.01,10.12,-2.19,-19.47299.00,-0.48,5.94,-7.96,-0.02,-0.04,-0.01,10.12,-2.19,-19.47312.00,-0.47,5.95,-7.98,-0.02,-0.04,-0.01,12.81,-0.65,-18.37324.00,-0.47,5.95,-7.98,-0.02,-0.04,-0.01,12.81,-0.65,-18.37335.00,-0.49,5.94,-7.97,-0.02,-0.04,-0.01,12.81,-0.65,-18.37347.00,-0.49,5.94,-7.97,-0.02,-0.04,-0.01,12.81,-0.65,-18.37360.00,-0.49,5.94,-7.98,-0.02,-0.04,-0.01,12.81,-0.65,-18.37371.00,-0.49,5.93,-7.98,-0.02,-0.04,-0.01,12.81,-0.65,-18.37383.00,-0.49,5.93,-7.98,-0.02,-0.04,-0.01,12.81,-0.65,-18.37395.00,-0.49,5.94,-7.98,-0.03,-0.04,-0.01,12.81,-0.65,-18.37409.00,-0.48,5.95,-7.97,-0.03,-0.04,-0.01,12.81,-0.65,-18.37420.00,-0.48,5.95,-7.97,-0.03,-0.04,-0.01,12.81,-0.65,-18.37432.00,-0.50,5.94,-8.01,-0.02,-0.04,-0.01,10.33,-1.34,-20.25444.00,-0.50,5.94,-8.01,-0.02,-0.04,-0.01,10.33,-1.34,-20.25457.00,-0.49,5.94,-7.96,-0.02,-0.04,-0.01,10.33,-1.34,-20.25468.00,-0.51,5.93,-7.97,-0.02,-0.04,-0.01,10.33,-1.34,-20.25480.00,-0.51,5.93,-7.97,-0.02,-0.04,-0.01,10.33,-1.34,-20.25492.00,-0.49,5.94,-7.99,-0.03,-0.04,-0.01,10.33,-1.34,-20.25505.00,-0.49,5.94,-7.99,-0.03,-0.04,-0.01,10.33,-1.34,-20.25517.00,-0.48,5.95,-7.96,-0.03,-0.04,-0.01,10.33,-1.34,-20.25528.00,-0.47,5.95,-7.97,-0.02,-0.04,-0.01,10.33,-1.34,-20.25540.00,-0.47,5.95,-7.97,-0.02,-0.04,-0.01,10.33,-1.34,-20.25553.00,-0.49,5.95,-8.00,-0.02,-0.04,-0.01,11.98,-0.65,-20.25564.00,-0.49,5.95,-8.00,-0.02,-0.04,-0.01,11.98,-0.65,-20.25576.00,-0.49,5.94,-8.00,-0.02,-0.04,-0.01,11.98,-0.65,-20.25587.00,-0.48,5.95,-7.99,-0.02,-0.04,-0.01,11.98,-0.65,-20.25599.00,-0.48,5.95,-7.99,-0.02,-0.04,-0.01,11.98,-0.65,-20.25612.00,-0.49,5.94,-7.99,-0.02,-0.04,-0.01,11.98,-0.65,-20.25623.00,-0.49,5.94,-7.99,-0.02,-0.04,-0.01,11.98,-0.65,-20.25635.00,-0.49,5.94,-8.01,-0.02,-0.04,-0.01,11.98,-0.65,-20.25647.00,-0.49,5.94,-8.01,-0.02,-0.04,-0.01,11.98,-0.65,-20.25660.00,-0.50,5.94,-7.97,-0.03,-0.04,-0.01,11.98,-0.65,-20.25672.00,-0.49,5.94,-7.99,-0.02,-0.04,-0.01,11.98,-0.65,-19.63683.00,-0.49,5.94,-7.99,-0.02,-0.04,-0.01,11.98,-0.65,-19.63695.00,-0.48,5.93,-7.99,-0.03,-0.04,-0.01,11.98,-0.65,-19.63708.00,-0.50,5.93,-7.97,-0.03,-0.04,-0.01,11.98,-0.65,-19.63719.00,-0.50,5.93,-7.97,-0.03,-0.04,-0.01,11.98,-0.65,-19.63730.00,-0.48,5.95,-7.98,-0.02,-0.04,-0.01,11.98,-0.65,-19.63742.00,-0.48,5.95,-7.98,-0.02,-0.04,-0.01,11.98,-0.65,-19.63756.00,-0.49,5.94,-7.97,-0.02,-0.04,-0.01,11.98,-0.65,-19.63767.00,-0.48,5.94,-8.00,-0.02,-0.04,-0.01,11.98,-0.65,-19.63779.00,-0.48,5.94,-8.00,-0.02,-0.04,-0.01,11.98,-0.65,-19.63790.00,-0.47,5.94,-7.97,-0.02,-0.04,-0.01,11.98,-0.65,-19.63804.00,-0.47,5.94,-7.97,-0.02,-0.04,-0.01,11.98,-0.65,-19.63815.00,-0.48,5.95,-7.98,-0.03,-0.04,-0.01,14.46,0.03,-20.88826.00,-0.48,5.95,-7.98,-0.03,-0.04,-0.01,14.46,0.03,-20.88838.00,-0.47,5.95,-7.96,-0.03,-0.04,-0.01,14.46,0.03,-20.88851.00,-0.49,5.95,-7.97,-0.02,-0.04,-0.01,14.46,0.03,-20.88865.00,-0.49,5.95,-7.97,-0.02,-0.04,-0.01,14.46,0.03,-20.88876.00,-0.49,5.93,-7.99,-0.02,-0.04,-0.01,14.46,0.03,-20.88887.00,-0.49,5.93,-7.98,-0.02,-0.04,-0.01,14.46,0.03,-20.88901.00,-0.49,5.93,-7.98,-0.02,-0.04,-0.01,14.46,0.03,-20.88912.00,-0.49,5.94,-7.99,-0.02,-0.04,-0.01,14.46,0.03,-20.88924.00,-0.49,5.94,-7.99,-0.02,-0.04,-0.01,14.46,0.03,-20.88935.00,-0.48,5.94,-8.00,-0.02,-0.04,-0.01,11.57,-0.31,-21.19946.00,-0.48,5.94,-8.00,-0.02,-0.04,-0.01,11.57,-0.31,-21.19959.00,-0.48,5.93,-7.99,-0.02,-0.04,-0.01,11.57,-0.31,-21.19970.00,-0.47,5.94,-7.96,-0.03,-0.04,-0.01,11.57,-0.31,-21.19982.00,-0.47,5.94,-7.96,-0.03,-0.04,-0.01,11.57,-0.31,-21.19993.00,-0.48,5.94,-7.96,-0.02,-0.04,-0.01,11.57,-0.31,-21.191006.00,-0.48,5.94,-7.96,-0.02,-0.04,-0.01,11.57,-0.31,-21.191018.00,-0.49,5.94,-7.98,-0.02,-0.04,-0.01,11.57,-0.31,-21.191029.00,-0.49,5.93,-7.99,-0.02,-0.04,-0.01,11.57,-0.31,-21.191040.00,-0.49,5.93,-7.99,-0.02,-0.04,-0.01,11.57,-0.31,-21.191054.00,-0.49,5.92,-8.00,-0.02,-0.04,-0.01,11.36,-0.48,-19.161065.00,-0.49,5.92,-8.00,-0.02,-0.04,-0.01,11.36,-0.48,-19.161077.00,-0.49,5.94,-7.99,-0.03,-0.04,-0.01,11.36,-0.48,-19.161088.00,-0.49,5.94,-7.97,-0.02,-0.04,-0.01,11.36,-0.48,-19.161102.00,-0.49,5.94,-7.97,-0.02,-0.04,-0.01,11.36,-0.48,-19.161114.00,-0.50,5.94,-7.96,-0.03,-0.04,-0.01,11.36,-0.48,-19.161126.00,-0.50,5.94,-7.96,-0.03,-0.04,-0.01,11.36,-0.48,-19.161139.00,-0.48,5.93,-8.00,-0.02,-0.04,-0.01,11.36,-0.48,-19.161151.00,-0.49,5.92,-8.00,-0.02,-0.04,-0.01,11.36,-0.48,-19.161163.00,-0.49,5.92,-8.00,-0.02,-0.04,-0.01,11.36,-0.48,-19.161175.00,-0.51,5.94,-7.99,-0.02,-0.04,-0.01,11.78,-1.17,-19.471187.00,-0.51,5.94,-7.99,-0.02,-0.04,-0.01,11.78,-1.17,-19.471201.00,-0.49,5.94,-7.99,-0.03,-0.04,-0.01,11.78,-1.17,-19.471212.00,-0.47,5.95,-7.99,-0.03,-0.04,-0.01,11.78,-1.17,-19.471224.00,-0.47,5.95,-7.99,-0.03,-0.04,-0.01,11.78,-1.17,-19.471236.00,-0.46,5.94,-8.00,-0.02,-0.04,-0.01,11.78,-1.17,-19.471248.00,-0.47,5.93,-7.97,-0.02,-0.04,-0.01,11.78,-1.17,-19.471260.00,-0.47,5.93,-7.97,-0.02,-0.04,-0.01,11.78,-1.17,-19.471272.00,-0.49,5.92,-7.96,-0.02,-0.04,-0.01,11.78,-1.17,-19.471283.00,-0.49,5.92,-7.96,-0.02,-0.04,-0.01,11.78,-1.17,-19.471297.00,-0.48,5.94,-7.99,-0.03,-0.04,-0.01,11.78,-1.17,-19.471309.00,-0.49,5.96,-8.00,-0.03,-0.04,-0.01,11.78,-1.17,-18.841320.00,-0.49,5.96,-8.00,-0.03,-0.04,-0.01,11.78,-1.17,-18.841331.00,-0.48,5.90,-7.99,-0.01,-0.04,-0.01,11.78,-1.17,-18.841345.00,-0.48,5.90,-7.99,-0.01,-0.04,-0.01,11.78,-1.17,-18.841357.00,-0.48,5.94,-7.98,-0.02,-0.04,-0.01,11.78,-1.17,-18.841368.00,-0.48,5.92,-8.00,-0.03,-0.04,-0.01,11.78,-1.17,-18.841380.00,-0.48,5.92,-8.00,-0.03,-0.04,-0.01,11.78,-1.17,-18.841393.00,-0.48,5.94,-7.98,-0.03,-0.04,-0.01,11.78,-1.17,-18.841405.00,-0.48,5.94,-7.98,-0.03,-0.04,-0.01,11.78,-1.17,-18.841417.00,-0.48,5.93,-7.97,-0.03,-0.04,-0.01,11.78,-1.17,-18.841428.00,-0.48,5.94,-8.02,-0.02,-0.04,-0.01,11.36,-1.51,-20.721441.00,-0.48,5.94,-8.02,-0.02,-0.04,-0.01,11.36,-1.51,-20.721453.00,-0.49,5.94,-8.00,-0.02,-0.04,-0.01,11.36,-1.51,-20.721464.00,-0.49,5.94,-8.00,-0.02,-0.04,-0.01,11.36,-1.51,-20.721475.00,-0.48,5.92,-7.98,-0.02,-0.04,-0.01,11.36,-1.51,-20.721488.00,-0.48,5.93,-7.99,-0.03,-0.04,-0.01,11.36,-1.51,-20.721500.00,-0.48,5.93,-7.99,-0.03,-0.04,-0.01,11.36,-1.51,-20.721512.00,-0.47,5.95,-7.97,-0.02,-0.04,-0.01,11.36,-1.51,-20.721523.00,-0.47,5.95,-7.97,-0.02,-0.04,-0.01,11.36,-1.51,-20.721537.00,-0.49,5.93,-7.99,-0.02,-0.04,-0.01,11.36,-1.51,-20.721548.00,-0.48,5.92,-8.00,-0.02,-0.04,-0.01,12.19,0.20,-19.781560.00,-0.48,5.92,-8.00,-0.02,-0.04,-0.01,12.19,0.20,-19.781572.00,-0.50,5.94,-8.01,-0.02,-0.04,-0.01,12.19,0.20,-19.781583.00,-0.50,5.94,-8.01,-0.02,-0.04,-0.01,12.19,0.20,-19.781597.00,-0.49,5.53,-7.77,-0.04,-0.04,-0.01,12.19,0.20,-19.781608.00,-0.97,5.93,-8.48,-0.20,0.02,-0.09,12.19,0.20,-19.781619.00,-0.97,5.93,-8.48,-0.20,0.02,-0.09,12.19,0.20,-19.781632.00,-0.20,6.04,-7.87,-0.13,0.24,-0.38,12.19,0.20,-19.781646.00,-0.20,6.04,-7.87,-0.13,0.24,-0.38,12.19,0.20,-19.781658.00,-0.22,6.08,-7.75,-0.14,0.16,-0.28,12.19,0.20,-19.781670.00,-0.46,5.94,-7.85,-0.19,0.00,-0.08,12.19,0.20,-19.471682.00,-0.46,5.94,-7.85,-0.19,0.00,-0.08,12.19,0.20,-19.471696.00,-0.50,6.67,-8.23,-0.13,-0.03,-0.01,12.19,0.20,-19.471707.00,-0.50,6.67,-8.23,-0.13,-0.03,-0.01,12.19,0.20,-19.471719.00,0.57,5.85,-7.85,0.46,-0.03,0.01,12.19,0.20,-19.471730.00,0.09,6.23,-9.27,0.53,-0.04,0.17,12.19,0.20,-19.471744.00,0.09,6.23,-9.27,0.53,-0.04,0.17,12.19,0.20,-19.471755.00,-0.42,4.39,-9.16,1.37,0.02,0.34,12.19,0.20,-19.471767.00,-0.42,4.39,-9.16,1.37,0.02,0.34,12.19,0.20,-19.471779.00,-0.36,2.90,-9.01,1.41,-0.13,0.67,12.19,0.20,-19.471792.00,-1.15,2.88,-9.80,0.60,-0.22,1.41,12.40,-4.06,-21.191804.00,-1.15,2.88,-9.80,0.60,-0.22,1.41,12.40,-4.06,-21.191814.00,0.39,6.56,-8.81,0.48,-0.17,2.15,12.40,-4.06,-21.191826.00,0.39,6.56,-8.81,0.48,-0.17,2.15,12.40,-4.06,-21.191838.00,-1.59,13.92,-12.26,0.33,-0.01,1.15,12.40,-4.06,-21.191842.00,-1.59,13.92,-12.26,0.33,-0.01,1.15,12.40,-4.06,-21.191920.00,-1.67,4.18,-8.57,3.10,-2.60,-1.70,12.40,-4.06,-21.191998.00,-2.58,6.21,-14.65,1.63,-4.05,-2.07,8.47,-16.47,-20.092076.00,-5.24,-4.26,0.32,-2.44,-4.76,-4.80,-6.40,-19.87,-19.162166.00,-5.91,0.74,-5.54,-4.03,1.89,0.04,-6.40,-19.87,-19.162178.00,-5.66,3.92,-8.31,-2.50,2.17,0.02,-9.91,-4.74,-21.502189.00,-2.95,2.24,-10.92,-2.13,1.24,-0.48,-9.91,-4.74,-21.502201.00,-2.95,2.24,-10.92,-2.13,1.24,-0.48,-9.91,-4.74,-21.502213.00,-4.02,2.53,-7.47,-1.49,0.11,-0.87,-9.91,-4.74,-21.502225.00,-4.02,2.53,-7.47,-1.49,0.11,-0.87,-9.91,-4.74,-21.502237.00,-5.80,2.59,-8.02,-1.40,-0.35,-1.86,-9.91,-4.74,-21.502249.00,-5.97,2.20,-5.84,-1.45,-0.44,-2.70,-9.91,-4.74,-21.502262.00,-5.97,2.20,-5.84,-1.45,-0.44,-2.70,-9.91,-4.74,-21.502274.00,-6.05,-0.13,-7.17,-1.88,0.04,-3.23,-9.91,-4.74,-21.502285.00,-6.05,-0.13,-7.17,-1.88,0.04,-3.23,-9.91,-4.74,-21.502297.00,-5.24,-2.90,-6.46,-1.01,0.22,-2.86,-9.50,-0.65,-22.132310.00,-6.47,-1.53,-6.39,-0.68,0.21,-2.20,-9.50,-0.65,-22.132322.00,-6.47,-1.53,-6.39,-0.68,0.21,-2.20,-9.50,-0.65,-22.132334.00,-7.25,-0.39,-7.16,-0.20,0.36,-1.92,-9.50,-0.65,-22.132346.00,-7.25,-0.39,-7.16,-0.20,0.36,-1.92,-9.50,-0.65,-22.132359.00,-6.85,-2.25,-5.86,0.48,0.55,-1.71,-9.50,-0.65,-22.132371.00,-4.49,-3.49,-6.10,-0.14,0.67,-1.15,-9.50,-0.65,-22.132382.00,-4.49,-3.49,-6.10,-0.14,0.67,-1.15,-9.50,-0.65,-22.132394.00,-10.95,-1.11,-8.74,-0.90,0.76,-0.25,-9.50,-0.65,-22.132406.00,-10.95,-1.11,-8.74,-0.90,0.76,-0.25,-9.50,-0.65,-22.132418.00,-4.52,1.64,-12.36,-0.12,0.77,0.28,-9.50,-0.65,-22.132429.00,-5.95,4.07,-8.78,0.06,-0.08,0.02,-6.61,-2.02,-21.812441.00,-5.95,4.07,-8.78,0.06,-0.08,0.02,-6.61,-2.02,-21.812455.00,-6.46,2.10,-9.09,1.68,-0.21,-0.70,-6.61,-2.02,-21.812466.00,-6.46,2.10,-9.09,1.68,-0.21,-0.70,-6.61,-2.02,-21.812478.00,-6.90,-0.25,-7.78,3.16,-0.53,-1.07,-6.61,-2.02,-21.812489.00,-4.96,-2.56,-7.41,3.53,-0.77,-0.97,-6.61,-2.02,-21.812503.00,-4.96,-2.56,-7.41,3.53,-0.77,-0.97,-6.61,-2.02,-21.812515.00,-7.95,-4.44,-3.34,2.30,-0.87,-0.36,-6.61,-2.02,-21.812527.00,-7.95,-4.44,-3.34,2.30,-0.87,-0.36,-6.61,-2.02,-21.812539.00,-6.73,-2.31,-6.80,-1.16,-0.70,0.05,-6.61,-2.02,-21.812552.00,-7.08,-0.57,-6.60,-1.26,-0.42,0.28,-8.47,-7.97,-20.092563.00,-7.08,-0.57,-6.60,-1.26,-0.42,0.28,-8.47,-7.97,-20.092575.00,-6.26,0.22,-7.14,-0.72,-0.43,0.12,-8.47,-7.97,-20.092587.00,-6.26,0.22,-7.14,-0.72,-0.43,0.12,-8.47,-7.97,-20.092601.00,-5.88,-1.68,-6.42,0.34,-0.44,-0.06,-8.47,-7.97,-20.092611.00,-6.86,-2.55,-5.35,0.57,-0.33,0.10,-8.47,-7.97,-20.092623.00,-6.86,-2.55,-5.35,0.57,-0.33,0.10,-8.47,-7.97,-20.092635.00,-6.95,-3.63,-4.51,0.27,-0.02,0.46,-8.47,-7.97,-20.092646.00,-6.95,-3.63,-4.51,0.27,-0.02,0.46,-8.47,-7.97,-20.092659.00,-7.37,-2.37,-5.81,-0.68,0.30,0.89,-8.47,-7.97,-20.092670.00,-7.39,1.70,-10.02,-1.85,0.15,0.97,-10.12,-5.25,-21.972682.00,-7.39,1.70,-10.02,-1.85,0.15,0.97,-10.12,-5.25,-21.972693.00,-7.70,3.37,-9.07,-1.38,-0.61,0.22,-10.12,-5.25,-21.972707.00,-7.70,3.37,-9.07,-1.38,-0.61,0.22,-10.12,-5.25,-21.972719.00,-6.06,3.08,-11.57,-0.30,-1.46,-0.67,-10.12,-5.25,-21.972731.00,-7.99,0.88,-4.59,3.93,-1.91,-1.12,-10.12,-5.25,-21.972743.00,-7.99,0.88,-4.59,3.93,-1.91,-1.12,-10.12,-5.25,-21.972756.00,-9.40,-4.40,-4.61,4.69,-1.58,-1.29,-10.12,-5.25,-21.972768.00,-9.42,-6.22,-2.32,3.52,-1.23,-0.84,-10.12,-5.25,-21.972780.00,-9.42,-6.22,-2.32,3.52,-1.23,-0.84,-10.12,-5.25,-21.972792.00,-8.65,-6.57,-1.68,1.17,-0.58,-0.20,-14.46,-13.92,-18.372805.00,-8.65,-6.57,-1.68,1.17,-0.58,-0.20,-14.46,-13.92,-18.372817.00,-9.84,-1.35,-4.48,-0.21,0.09,0.23,-14.46,-13.92,-18.372828.00,-8.09,1.04,-6.82,0.20,0.44,-0.37,-14.46,-13.92,-18.372840.00,-8.09,1.04,-6.82,0.20,0.44,-0.37,-14.46,-13.92,-18.372853.00,-5.04,-2.44,-9.32,1.49,0.02,-1.22,-14.46,-13.92,-18.372865.00,-5.04,-2.44,-9.32,1.49,0.02,-1.22,-14.46,-13.92,-18.372877.00,-6.10,-3.97,-5.40,1.36,-0.90,-1.44,-14.46,-13.92,-18.372888.00,-6.83,-9.31,6.59,-3.41,-0.74,-1.42,-14.46,-13.92,-18.372902.00,-6.83,-9.31,6.59,-3.41,-0.74,-1.42,-14.46,-13.92,-18.372912.00,-6.04,-10.52,-10.23,-8.87,0.75,-0.16,-14.46,-13.92,-18.372924.00,-6.04,-10.52,-10.23,-8.87,0.75,-0.16,-14.46,-13.92,-18.372936.00,-7.32,-1.83,-5.62,-4.35,0.72,1.82,-13.42,-7.29,-20.092949.00,-7.64,4.02,-7.78,-4.09,0.50,1.92,-13.42,-7.29,-20.092961.00,-7.64,4.02,-7.78,-4.09,0.50,1.92,-13.42,-7.29,-20.092973.00,-8.59,3.87,-8.01,-1.63,-0.07,0.95,-13.42,-7.29,-20.092985.00,-8.59,3.87,-8.01,-1.63,-0.07,0.95,-13.42,-7.29,-20.092998.00,-8.03,0.47,-6.65,0.97,-0.40,0.02,-13.42,-7.29,-20.093010.00,-6.91,-2.89,-5.38,1.56,-0.49,-0.36,-13.42,-7.29,-20.093021.00,-6.91,-2.89,-5.38,1.56,-0.49,-0.36,-13.42,-7.29,-20.093033.00,-6.53,-3.09,-5.44,0.74,-0.45,-0.12,-13.42,-7.29,-20.093046.00,-6.53,-3.09,-5.44,0.74,-0.45,-0.12,-13.42,-7.29,-20.093057.00,-7.32,-2.04,-5.90,-0.34,-0.47,0.31,-15.28,-3.72,-20.253069.00,-7.74,-0.52,-6.86,-0.78,-0.41,0.48,-15.28,-3.72,-20.253079.00,-7.74,-0.52,-6.86,-0.78,-0.41,0.48,-15.28,-3.72,-20.253093.00,-7.96,0.65,-7.17,-0.70,-0.43,0.35,-15.28,-3.72,-20.253105.00,-7.96,0.65,-7.17,-0.70,-0.43,0.35,-15.28,-3.72,-20.253116.00,-8.07,-0.28,-6.18,-0.18,-0.50,-0.05,-15.28,-3.72,-20.253128.00,-8.33,-2.38,-4.88,0.12,-0.39,-0.24,-15.28,-3.72,-20.253142.00,-8.33,-2.38,-4.88,0.12,-0.39,-0.24,-15.28,-3.72,-20.253154.00,-8.05,-1.85,-5.55,-0.46,-0.08,-0.01,-15.28,-3.72,-20.253165.00,-8.05,-1.85,-5.55,-0.46,-0.08,-0.01,-15.28,-3.72,-20.253177.00,-7.74,-0.09,-6.34,-0.74,0.02,0.14,-13.42,-1.51,-21.033190.00,-8.06,0.54,-6.78,-0.18,0.02,0.00,-13.42,-1.51,-21.033202.00,-8.06,0.54,-6.78,-0.18,0.02,0.00,-13.42,-1.51,-21.033213.00,-8.25,-0.14,-6.06,0.70,0.06,-0.17,-13.42,-1.51,-21.033225.00,-8.25,-0.14,-6.06,0.70,0.06,-0.17,-13.42,-1.51,-21.033238.00,-9.36,-0.43,-6.09,1.17,0.22,-0.30,-13.42,-1.51,-21.033250.00,-6.77,-1.99,-6.29,0.06,0.28,-0.66,-13.42,-1.51,-21.033262.00,-6.77,-1.99,-6.29,0.06,0.28,-0.66,-13.42,-1.51,-21.033274.00,-7.26,-2.08,-7.02,-0.46,0.06,-0.55,-13.42,-1.51,-21.033287.00,-7.26,-2.08,-7.02,-0.46,0.06,-0.55,-13.42,-1.51,-21.033299.00,-8.39,-0.77,-8.06,0.43,0.12,0.12,-13.63,-2.36,-20.883310.00,-6.36,-2.94,-4.28,1.36,0.33,0.64,-13.63,-2.36,-20.883322.00,-6.36,-2.94,-4.28,1.36,0.33,0.64,-13.63,-2.36,-20.883335.00,-7.53,-3.27,-5.03,-0.03,-0.36,0.29,-13.63,-2.36,-20.883347.00,-7.53,-3.27,-5.03,-0.03,-0.36,0.29,-13.63,-2.36,-20.883359.00,-8.18,-1.17,-5.40,-0.71,-0.55,0.40,-13.63,-2.36,-20.883370.00,-6.92,0.38,-7.31,-1.03,-0.46,0.31,-13.63,-2.36,-20.883385.00,-6.92,0.38,-7.31,-1.03,-0.46,0.31,-13.63,-2.36,-20.883396.00,-7.57,0.90,-7.69,-0.40,-0.58,0.02,-13.63,-2.36,-20.883408.00,-7.57,0.90,-7.69,-0.40,-0.58,0.02,-13.63,-2.36,-20.883419.00,-8.11,0.11,-6.26,0.42,-0.66,-0.34,-13.63,-2.36,-20.883433.00,-8.41,-1.65,-5.02,1.01,-0.64,-0.58,-16.94,-1.34,-18.373445.00,-8.41,-1.65,-5.02,1.01,-0.64,-0.58,-16.94,-1.34,-18.373456.00,-8.73,-2.92,-4.08,0.99,-0.51,-0.46,-16.94,-1.34,-18.373467.00,-8.73,-2.92,-4.08,0.99,-0.51,-0.46,-16.94,-1.34,-18.373481.00,-8.40,-2.14,-5.19,0.58,-0.25,-0.22,-16.94,-1.34,-18.373493.00,-8.02,-1.78,-5.62,0.30,-0.15,-0.14,-16.94,-1.34,-18.373504.00,-8.02,-1.78,-5.62,0.30,-0.15,-0.14,-16.94,-1.34,-18.373516.00,-7.88,-2.01,-5.63,0.06,-0.12,-0.06,-16.94,-1.34,-18.373529.00,-7.46,-2.13,-5.78,-0.16,-0.11,0.08,-16.94,-1.34,-18.373541.00,-7.46,-2.13,-5.78,-0.16,-0.11,0.08,-16.94,-1.34,-18.373553.00,-8.02,-1.93,-5.39,-0.37,-0.20,0.20,-16.11,-4.06,-19.003565.00,-8.02,-1.93,-5.39,-0.37,-0.20,0.20,-16.11,-4.06,-19.003579.00,-8.85,-1.28,-5.16,-0.53,-0.20,0.23,-16.11,-4.06,-19.003590.00,-8.69,-0.89,-5.28,-0.49,-0.12,0.08,-16.11,-4.06,-19.003602.00,-8.69,-0.89,-5.28,-0.49,-0.12,0.08,-16.11,-4.06,-19.003613.00,-8.25,-1.62,-5.36,-0.28,-0.11,-0.08,-16.11,-4.06,-19.003627.00,-8.25,-1.62,-5.36,-0.28,-0.11,-0.08,-16.11,-4.06,-19.003638.00,-7.59,-2.09,-5.68,-0.28,-0.12,-0.02,-16.11,-4.06,-19.003650.00,-8.38,-0.53,-6.08,-0.36,-0.13,0.15,-16.11,-4.06,-19.003661.00,-8.38,-0.53,-6.08,-0.36,-0.13,0.15,-16.11,-4.06,-19.003675.00,-8.89,-0.50,-5.45,-0.12,-0.15,0.03,-17.14,-0.82,-17.593685.00,-8.89,-0.50,-5.45,-0.12,-0.15,0.03,-17.14,-0.82,-17.593697.00,-8.40,-1.46,-5.04,0.07,-0.09,-0.13,-17.14,-0.82,-17.593709.00,-7.90,-1.01,-5.99,0.03,-0.05,-0.14,-17.14,-0.82,-17.593722.00,-7.90,-1.01,-5.99,0.03,-0.05,-0.14,-17.14,-0.82,-17.593733.00,-7.89,-1.77,-5.59,0.11,-0.12,-0.15,-17.14,-0.82,-17.593745.00,-7.89,-1.77,-5.59,0.11,-0.12,-0.15,-17.14,-0.82,-17.593757.00,-8.04,-1.51,-5.50,-0.01,-0.11,-0.04,-17.14,-0.82,-17.593770.00,-8.17,-1.11,-5.64,-0.07,-0.11,0.01,-17.14,-0.82,-17.593781.00,-8.17,-1.11,-5.64,-0.07,-0.11,0.01,-17.14,-0.82,-17.593793.00,-8.10,-1.47,-5.45,-0.01,-0.15,-0.00,-15.70,-3.04,-19.003804.00,-8.10,-1.47,-5.45,-0.01,-0.15,-0.00,-15.70,-3.04,-19.003818.00,-8.43,-1.41,-5.25,-0.01,-0.15,0.03,-15.70,-3.04,-19.003829.00,-8.33,-1.29,-5.40,-0.00,-0.12,0.01,-15.70,-3.04,-19.003841.00,-8.33,-1.29,-5.40,-0.00,-0.12,0.01,-15.70,-3.04,-19.003853.00,-7.97,-1.14,-5.79,0.02,-0.13,-0.01,-15.70,-3.04,-19.003866.00,-7.97,-1.14,-5.79,0.02,-0.13,-0.01,-15.70,-3.04,-19.003878.00,-7.99,-1.39,-5.66,0.04,-0.20,0.02,-15.70,-3.04,-19.003889.00,-8.35,-1.41,-5.38,0.01,-0.26,0.05,-15.70,-3.04,-19.003900.00,-8.35,-1.41,-5.38,0.01,-0.26,0.05,-15.70,-3.04,-19.003913.00,-10.34,-1.28,-4.93,-0.03,-0.34,-0.01,-15.70,-3.04,-19.003925.00,-10.34,-1.28,-4.93,-0.03,-0.34,-0.01,-15.70,-3.04,-19.003937.00,-8.43,-1.69,-4.77,-0.10,-0.23,-0.05,-19.00,-2.70,-18.693948.00,-8.43,-1.69,-4.77,-0.10,-0.23,-0.05,-19.00,-2.70,-18.693962.00,-8.30,-1.29,-5.63,-0.17,-0.19,-0.06,-19.00,-2.70,-18.693973.00,-8.16,-0.33,-5.62,-0.02,-0.20,-0.09,-19.00,-2.70,-18.693985.00,-8.16,-0.33,-5.62,-0.02,-0.20,-0.09,-19.00,-2.70,-18.693996.00,-8.05,-0.96,-5.49,0.35,-0.18,-0.26,-19.00,-2.70,-18.694010.00,-8.32,-1.85,-5.17,0.72,-0.11,-0.38,-19.00,-2.70,-18.694022.00,-8.32,-1.85,-5.17,0.72,-0.11,-0.38,-19.00,-2.70,-18.694033.00,-8.87,-2.73,-5.13,0.80,0.04,-0.24,-19.00,-2.70,-18.694044.00,-8.87,-2.73,-5.13,0.80,0.04,-0.24,-19.00,-2.70,-18.694058.00,-8.58,-2.30,-4.57,0.47,0.16,0.06,-18.18,-4.74,-17.444070.00,-8.63,-3.41,-4.42,0.13,0.26,0.30,-18.18,-4.74,-17.444082.00,-8.63,-3.41,-4.42,0.13,0.26,0.30,-18.18,-4.74,-17.444093.00,-8.20,-4.06,-4.64,-0.38,0.23,0.59,-18.18,-4.74,-17.444107.00,-8.20,-4.06,-4.64,-0.38,0.23,0.59,-18.18,-4.74,-17.444118.00,-8.57,-1.80,-4.64,-0.71,0.13,0.77,-18.18,-4.74,-17.444130.00,-8.55,-2.48,-5.41,-0.64,-0.01,0.54,-18.18,-4.74,-17.444141.00,-8.55,-2.48,-5.41,-0.64,-0.01,0.54,-18.18,-4.74,-17.444154.00,-8.56,0.51,-5.41,-0.89,-0.13,0.42,-18.18,-4.74,-17.444166.00,-8.56,0.51,-5.41,-0.89,-0.13,0.42,-18.18,-4.74,-17.444177.00,-8.39,-0.17,-5.46,-0.58,-0.21,0.03,-17.14,-0.82,-18.534189.00,-7.99,0.23,-6.15,-0.13,-0.31,-0.40,-17.14,-0.82,-18.534202.00,-7.99,0.23,-6.15,-0.13,-0.31,-0.40,-17.14,-0.82,-18.534214.00,-7.44,0.00,-7.25,0.81,-0.44,-0.90,-17.14,-0.82,-18.534226.00,-7.44,0.00,-7.25,0.81,-0.44,-0.90,-17.14,-0.82,-18.534237.00,-7.70,1.21,-6.48,1.48,-0.37,-1.00,-17.14,-0.82,-18.534251.00,-7.93,-2.91,-4.27,1.65,-0.24,-0.94,-17.14,-0.82,-18.534263.00,-7.93,-2.91,-4.27,1.65,-0.24,-0.94,-17.14,-0.82,-18.534275.00,-8.01,-3.60,-4.01,1.15,-0.02,-0.47,-17.14,-0.82,-18.534287.00,-8.01,-3.60,-4.01,1.15,-0.02,-0.47,-17.14,-0.82,-18.534291.00,-9.37,-2.51,-3.27,0.71,0.18,-0.12,-18.38,-5.59,-17.594370.00,-7.23,-0.65,-7.38,-1.01,0.37,0.09,-18.38,-5.59,-17.594447.00,-6.76,-1.85,-6.70,0.13,-0.21,-0.03,-16.94,-4.40,-19.314526.00,-8.71,-1.25,-5.81,-0.48,0.01,0.39,-16.94,-4.40,-19.314615.00,-8.06,-1.97,-4.87,-0.04,0.39,-0.36,-18.38,-3.89,-17.914627.00,-8.06,-1.97,-4.87,-0.04,0.39,-0.36,-18.38,-3.89,-17.914637.00,-7.92,-1.45,-5.96,-0.22,0.30,-0.40,-18.38,-3.89,-17.914649.00,-7.50,-2.25,-5.52,-0.18,0.19,-0.38,-18.38,-3.89,-17.914663.00,-7.50,-2.25,-5.52,-0.18,0.19,-0.38,-18.38,-3.89,-17.914675.00,-7.07,-1.99,-6.06,-0.30,0.14,-0.21,-16.94,-3.72,-19.314687.00,-7.07,-1.99,-6.06,-0.30,0.14,-0.21,-16.94,-3.72,-19.314698.00,-7.22,-1.55,-6.28,-0.29,0.03,-0.04,-16.94,-3.72,-19.314712.00,-7.60,-1.32,-6.23,-0.18,-0.11,0.05,-16.94,-3.72,-19.314724.00,-7.60,-1.32,-6.23,-0.18,-0.11,0.05,-16.94,-3.72,-19.314735.00,-7.74,-1.48,-5.98,-0.05,-0.26,0.06,-16.94,-3.72,-19.314747.00,-7.74,-1.48,-5.98,-0.05,-0.26,0.06,-16.94,-3.72,-19.314760.00,-7.57,-1.49,-6.03,0.01,-0.38,0.10,-16.94,-3.72,-19.314772.00,-8.21,-1.12,-6.20,0.09,-0.56,0.18,-16.94,-3.72,-19.314784.00,-8.21,-1.12,-6.20,0.09,-0.56,0.18,-16.94,-3.72,-19.314796.00,-9.77,-2.28,-3.86,0.17,-0.54,0.10,-17.76,-2.36,-19.634809.00,-8.83,-1.51,-4.43,-0.18,-0.15,0.13,-17.76,-2.36,-19.634821.00,-8.83,-1.51,-4.43,-0.18,-0.15,0.13,-17.76,-2.36,-19.634833.00,-8.78,-0.58,-5.35,-0.33,-0.04,0.14,-17.76,-2.36,-19.634844.00,-8.78,-0.58,-5.35,-0.33,-0.04,0.14,-17.76,-2.36,-19.634858.00,-8.54,-1.16,-4.85,-0.29,-0.13,-0.02,-17.76,-2.36,-19.634870.00,-8.27,-0.79,-5.47,-0.29,-0.14,-0.15,-17.76,-2.36,-19.634881.00,-8.27,-0.79,-5.47,-0.29,-0.14,-0.15,-17.76,-2.36,-19.634893.00,-7.87,-1.86,-5.62,-0.12,-0.12,-0.19,-17.76,-2.36,-19.634906.00,-7.87,-1.86,-5.62,-0.12,-0.12,-0.19,-17.76,-2.36,-19.634918.00,-8.11,-0.57,-6.34,-0.08,-0.05,-0.03,-18.59,-2.70,-18.374929.00,-8.24,-1.27,-5.33,0.18,-0.07,-0.02,-18.59,-2.70,-18.374941.00,-8.24,-1.27,-5.33,0.18,-0.07,-0.02,-18.59,-2.70,-18.374954.00,-8.26,-2.32,-4.57,0.24,0.02,0.08,-18.59,-2.70,-18.374966.00,-8.26,-2.32,-4.57,0.24,0.02,0.08,-18.59,-2.70,-18.374978.00,-9.20,-1.31,-4.14,-0.02,0.04,0.25,-18.59,-2.70,-18.374989.00,-8.83,-2.70,-4.40,-0.23,0.06,0.23,-18.59,-2.70,-18.375003.00,-8.83,-2.70,-4.40,-0.23,0.06,0.23,-18.59,-2.70,-18.375014.00,-8.68,-0.62,-5.44,-0.62,0.06,0.37,-18.59,-2.70,-18.375026.00,-8.68,-0.62,-5.44,-0.62,0.06,0.37,-18.59,-2.70,-18.375037.00,-8.42,-0.34,-5.73,-0.57,-0.04,0.19,-18.59,-2.70,-18.375050.00,-7.96,-0.27,-6.00,-0.31,-0.13,-0.09,-19.00,-1.68,-18.065062.00,-7.96,-0.27,-6.00,-0.31,-0.13,-0.09,-19.00,-1.68,-18.065074.00,-7.93,-0.77,-5.97,0.00,-0.15,-0.23,-19.00,-1.68,-18.065086.00,-7.93,-0.77,-5.97,0.00,-0.15,-0.23,-19.00,-1.68,-18.065098.00,-8.16,-0.41,-5.83,0.19,-0.13,-0.16,-19.00,-1.68,-18.065110.00,-8.33,-1.70,-4.86,0.33,-0.12,-0.12,-19.00,-1.68,-18.065122.00,-8.33,-1.70,-4.86,0.33,-0.12,-0.12,-19.00,-1.68,-18.065133.00,-8.48,-1.99,-4.42,0.13,-0.05,0.07,-19.00,-1.68,-18.065146.00,-8.48,-1.99,-4.42,0.13,-0.05,0.07,-19.00,-1.68,-18.065158.00,-8.84,-0.64,-4.99,-0.22,0.05,0.29,-19.00,-1.68,-18.065169.00,-8.85,-1.56,-4.69,-0.38,0.03,0.28,-19.00,-1.68,-18.695181.00,-8.85,-1.56,-4.69,-0.38,0.03,0.28,-19.00,-1.68,-18.695193.00,-8.45,0.08,-5.58,-0.59,-0.02,0.31,-19.00,-1.68,-18.695205.00,-8.45,0.08,-5.58,-0.59,-0.02,0.31,-19.00,-1.68,-18.695217.00,-8.49,-0.41,-5.29,-0.38,-0.07,0.10,-19.00,-1.68,-18.695228.00,-8.49,-0.41,-5.29,-0.38,-0.07,0.10,-19.00,-1.68,-18.695241.00,-8.33,0.23,-6.27,-0.20,-0.08,-0.05,-19.00,-1.68,-18.695252.00,-8.04,-0.72,-6.12,0.13,-0.12,-0.20,-19.00,-1.68,-18.695264.00,-8.04,-0.72,-6.12,0.13,-0.12,-0.20,-19.00,-1.68,-18.695276.00,-8.32,-0.58,-5.57,0.27,-0.17,-0.18,-19.00,-1.68,-18.695290.00,-8.26,-2.32,-4.02,0.32,-0.17,-0.14,-19.21,-1.17,-19.475300.00,-8.26,-2.32,-4.02,0.32,-0.17,-0.14,-19.21,-1.17,-19.475312.00,-8.83,-1.33,-4.25,0.03,-0.02,0.09,-19.21,-1.17,-19.475324.00,-8.83,-1.33,-4.25,0.03,-0.02,0.09,-19.21,-1.17,-19.475337.00,-9.18,-1.38,-4.05,-0.21,0.05,0.13,-19.21,-1.17,-19.475349.00,-9.18,-1.38,-4.05,-0.21,0.05,0.13,-19.21,-1.17,-19.475361.00,-9.66,1.00,-4.73,-0.50,0.08,0.05,-19.21,-1.17,-19.475372.00,-10.25,-0.92,-4.35,-0.29,0.26,-0.45,-19.21,-1.17,-19.475386.00,-10.25,-0.92,-4.35,-0.29,0.26,-0.45,-19.21,-1.17,-19.475398.00,-5.27,-0.69,-8.19,-0.19,0.64,-0.53,-19.21,-1.17,-19.475409.00,-5.66,-0.79,-8.33,0.22,0.17,-0.50,-17.56,-1.85,-18.225421.00,-5.66,-0.79,-8.33,0.22,0.17,-0.50,-17.56,-1.85,-18.225434.00,-5.03,-1.58,-8.06,0.53,-0.39,-0.48,-17.56,-1.85,-18.225446.00,-5.03,-1.58,-8.06,0.53,-0.39,-0.48,-17.56,-1.85,-18.225457.00,-11.22,-0.99,-4.86,0.75,-1.04,-0.23,-17.56,-1.85,-18.225469.00,-11.22,-0.99,-4.86,0.75,-1.04,-0.23,-17.56,-1.85,-18.225482.00,-9.80,-3.48,-0.27,0.59,-0.79,-0.23,-17.56,-1.85,-18.225494.00,-9.64,-1.38,-3.91,-0.04,-0.22,0.03,-17.56,-1.85,-18.225506.00,-9.64,-1.38,-3.91,-0.04,-0.22,0.03,-17.56,-1.85,-18.225517.00,-9.77,-0.33,-4.10,-0.21,-0.11,0.00,-17.56,-1.85,-18.225531.00,-14.61,-0.45,-2.38,-0.31,0.21,-0.20,-17.56,-1.85,-18.225543.00,-14.61,-0.45,-2.38,-0.31,0.21,-0.20,-17.56,-1.85,-18.225554.00,-7.13,-1.09,-6.94,-0.72,0.96,-0.35,-21.07,-2.02,-18.375566.00,-7.13,-1.09,-6.94,-0.72,0.96,-0.35,-21.07,-2.02,-18.375579.00,-7.47,-1.67,-3.79,-0.50,0.40,-0.44,-21.07,-2.02,-18.375591.00,-9.63,-1.23,-1.36,-0.16,-0.10,-0.54,-21.07,-2.02,-18.375602.00,-9.63,-1.23,-1.36,-0.16,-0.10,-0.54,-21.07,-2.02,-18.375613.00,-4.06,-3.88,-4.58,-0.14,0.09,-0.43,-21.07,-2.02,-18.375627.00,-4.06,-3.88,-4.58,-0.14,0.09,-0.43,-21.07,-2.02,-18.375638.00,-2.05,-1.83,-7.71,-0.12,0.20,0.17,-21.07,-2.02,-18.375651.00,-5.69,-0.80,-10.49,0.32,0.17,0.66,-21.07,-2.02,-18.375663.00,-5.69,-0.80,-10.49,0.32,0.17,0.66,-21.07,-2.02,-18.375676.00,-10.98,2.01,-11.00,0.51,-0.04,0.63,-19.00,-2.02,-18.065688.00,-10.98,2.01,-11.00,0.51,-0.04,0.63,-19.00,-2.02,-18.065700.00,-7.26,-4.50,-3.14,1.07,-0.18,-0.01,-19.00,-2.02,-18.065712.00,-8.67,-2.42,-3.58,0.40,-0.04,0.26,-19.00,-2.02,-18.065725.00,-8.67,-2.42,-3.58,0.40,-0.04,0.26,-19.00,-2.02,-18.065736.00,-9.94,-1.74,-3.73,0.12,-0.06,0.29,-19.00,-2.02,-18.065748.00,-9.94,-1.74,-3.73,0.12,-0.06,0.29,-19.00,-2.02,-18.065759.00,-9.04,-0.82,-4.86,-0.06,0.07,0.19,-19.00,-2.02,-18.065773.00,-8.35,-0.47,-5.87,-0.06,0.05,0.05,-19.00,-2.02,-18.065784.00,-8.35,-0.47,-5.87,-0.06,0.05,0.05,-19.00,-2.02,-18.065795.00,-7.61,-1.14,-6.18,0.07,-0.09,-0.11,-17.97,-3.21,-18.845807.00,-7.61,-1.14,-6.18,0.07,-0.09,-0.11,-17.97,-3.21,-18.845821.00,-7.19,-1.38,-6.37,0.09,-0.31,-0.16,-17.97,-3.21,-18.845832.00,-7.12,-1.76,-5.98,0.16,-0.58,-0.15,-17.97,-3.21,-18.845843.00,-7.12,-1.76,-5.98,0.16,-0.58,-0.15,-17.97,-3.21,-18.845855.00,-11.78,-2.22,-1.94,0.21,-0.71,-0.05,-17.97,-3.21,-18.845869.00,-11.78,-2.22,-1.94,0.21,-0.71,-0.05,-17.97,-3.21,-18.845880.00,-8.84,-0.81,-4.06,-0.27,-0.19,0.09,-17.97,-3.21,-18.845891.00,-8.36,-1.61,-5.30,-0.12,-0.03,0.14,-17.97,-3.21,-18.845903.00,-8.36,-1.61,-5.30,-0.12,-0.03,0.14,-17.97,-3.21,-18.845916.00,-9.12,0.28,-5.45,-0.02,0.02,0.37,-20.65,-2.02,-19.005928.00,-9.12,0.28,-5.45,-0.02,0.02,0.37,-20.65,-2.02,-19.005938.00,-8.76,-1.80,-3.84,0.04,-0.03,0.34,-20.65,-2.02,-19.005950.00,-8.68,-3.26,-4.06,-0.09,-0.01,0.23,-20.65,-2.02,-19.005963.00,-8.68,-3.26,-4.06,-0.09,-0.01,0.23,-20.65,-2.02,-19.005974.00,-8.61,-1.37,-5.40,-0.47,0.02,0.28,-20.65,-2.02,-19.005985.00,-8.61,-1.37,-5.40,-0.47,0.02,0.28,-20.65,-2.02,-19.005997.00,-8.68,0.72,-6.36,-0.57,-0.05,0.12,-20.65,-2.02,-19.006009.00,-8.68,0.72,-6.36,-0.57,-0.05,0.12,-20.65,-2.02,-19.006022.00,-8.20,-0.74,-5.46,-0.20,-0.17,-0.26,-20.65,-2.02,-19.006034.00,-8.08,-1.23,-5.81,0.08,-0.16,-0.42,-20.65,-2.02,-19.006046.00,-8.08,-1.23,-5.81,0.08,-0.16,-0.42,-20.65,-2.02,-19.006057.00,-8.34,-0.84,-5.72,0.21,-0.16,-0.34,-18.80,-2.53,-19.476071.00,-8.44,-2.06,-4.08,0.25,-0.15,-0.22,-18.80,-2.53,-19.476082.00,-8.44,-2.06,-4.08,0.25,-0.15,-0.22,-18.80,-2.53,-19.476094.00,-8.62,-2.25,-4.26,0.07,-0.01,-0.01,-18.80,-2.53,-19.476106.00,-8.62,-2.25,-4.26,0.07,-0.01,-0.01,-18.80,-2.53,-19.476119.00,-8.68,-1.72,-5.12,-0.17,0.04,0.15,-18.80,-2.53,-19.476131.00,-8.57,-2.38,-4.21,-0.34,-0.03,0.23,-18.80,-2.53,-19.476142.00,-8.57,-2.38,-4.21,-0.34,-0.03,0.23,-18.80,-2.53,-19.476154.00,-8.76,-0.91,-4.52,-0.60,-0.10,0.29,-18.80,-2.53,-19.476167.00,-8.76,-0.91,-4.52,-0.60,-0.10,0.29,-18.80,-2.53,-19.476179.00,-8.72,-0.03,-6.31,-0.54,-0.12,0.12,-20.24,-0.99,-18.376190.00,-7.83,-0.13,-6.15,-0.25,-0.18,-0.11,-20.24,-0.99,-18.376204.00,-7.83,-0.13,-6.15,-0.25,-0.18,-0.11,-20.24,-0.99,-18.376216.00,-8.23,-0.25,-6.50,0.11,-0.16,-0.17,-20.24,-0.99,-18.376227.00,-8.23,-0.25,-6.50,0.11,-0.16,-0.17,-20.24,-0.99,-18.376239.00,-8.31,-1.65,-4.52,0.39,-0.21,-0.19,-20.24,-0.99,-18.376252.00,-8.34,-3.11,-3.80,0.39,-0.08,-0.04,-20.24,-0.99,-18.376264.00,-8.34,-3.11,-3.80,0.39,-0.08,-0.04,-20.24,-0.99,-18.376276.00,-8.72,-1.80,-4.31,0.02,0.03,0.24,-20.24,-0.99,-18.376287.00,-8.72,-1.80,-4.31,0.02,0.03,0.24,-20.24,-0.99,-18.376299.00,-8.94,-1.07,-4.83,-0.24,0.04,0.26,-20.45,-2.87,-17.286312.00,-9.28,-0.87,-4.51,-0.35,0.01,0.17,-20.45,-2.87,-17.286324.00,-9.28,-0.87,-4.51,-0.35,0.01,0.17,-20.45,-2.87,-17.286336.00,-9.03,0.34,-4.17,-0.30,-0.02,-0.04,-20.45,-2.87,-17.286347.00,-9.03,0.34,-4.17,-0.30,-0.02,-0.04,-20.45,-2.87,-17.286361.00,-10.60,-1.92,-3.30,0.05,0.14,-0.34,-20.45,-2.87,-17.286372.00,-6.31,-1.11,-7.19,-0.15,0.55,-0.32,-20.45,-2.87,-17.286384.00,-6.31,-1.11,-7.19,-0.15,0.55,-0.32,-20.45,-2.87,-17.286395.00,-5.71,-0.73,-8.36,0.04,0.23,-0.33,-20.45,-2.87,-17.286409.00,-5.71,-0.73,-8.36,0.04,0.23,-0.33,-20.45,-2.87,-17.286419.00,-5.96,-0.73,-8.05,0.33,-0.29,-0.34,-19.83,-2.70,-18.066431.00,-12.39,-2.27,-1.75,0.67,-0.76,-0.25,-19.83,-2.70,-18.066443.00,-12.39,-2.27,-1.75,0.67,-0.76,-0.25,-19.83,-2.70,-18.066456.00,-9.57,-2.85,-0.90,0.21,-0.37,-0.05,-19.83,-2.70,-18.066468.00,-9.57,-2.85,-0.90,0.21,-0.37,-0.05,-19.83,-2.70,-18.066480.00,-9.14,0.00,-5.43,-0.32,0.02,0.17,-19.83,-2.70,-18.066492.00,-9.16,-0.22,-5.57,-0.13,-0.03,0.03,-19.83,-2.70,-18.066505.00,-9.16,-0.22,-5.57,-0.13,-0.03,0.03,-19.83,-2.70,-18.066516.00,-10.81,-1.47,-3.38,0.05,-0.07,-0.06,-19.83,-2.70,-18.066528.00,-10.81,-1.47,-3.38,0.05,-0.07,-0.06,-19.83,-2.70,-18.066540.00,-8.64,-1.93,-3.98,-0.17,0.36,-0.05,-19.83,-2.70,-18.066552.00,-6.92,-1.83,-6.36,-0.37,0.47,0.00,-19.21,-1.85,-18.226564.00,-6.92,-1.83,-6.36,-0.37,0.47,0.00,-19.21,-1.85,-18.226575.00,-5.75,-1.27,-7.65,-0.27,0.19,0.07,-19.21,-1.85,-18.226587.00,-5.75,-1.27,-7.65,-0.27,0.19,0.07,-19.21,-1.85,-18.226601.00,-6.37,-2.00,-6.60,0.07,-0.21,0.16,-19.21,-1.85,-18.226613.00,-7.85,-1.77,-5.26,0.22,-0.57,0.30,-19.21,-1.85,-18.226625.00,-7.85,-1.77,-5.26,0.22,-0.57,0.30,-19.21,-1.85,-18.226636.00,-11.79,-0.60,-2.64,0.20,-0.62,0.28,-19.21,-1.85,-18.226649.00,-11.79,-0.60,-2.64,0.20,-0.62,0.28,-19.21,-1.85,-18.226661.00,-9.08,-1.37,-3.74,-0.07,-0.20,0.12,-19.21,-1.85,-18.226672.00,-8.63,-0.45,-5.56,-0.22,-0.07,0.10,-21.27,-2.53,-17.286684.00,-8.63,-0.45,-5.56,-0.22,-0.07,0.10,-21.27,-2.53,-17.286697.00,-8.35,-0.80,-5.67,-0.10,-0.12,-0.03,-21.27,-2.53,-17.286709.00,-8.35,-0.80,-5.67,-0.10,-0.12,-0.03,-21.27,-2.53,-17.286722.00,-8.29,-0.39,-5.33,0.08,-0.12,-0.13,-21.27,-2.53,-17.286733.00,-8.35,-1.00,-5.02,0.38,-0.06,-0.25,-21.27,-2.53,-17.286746.00,-8.35,-1.00,-5.02,0.38,-0.06,-0.25,-21.27,-2.53,-17.286758.00,-8.61,-0.76,-5.71,0.54,0.02,-0.26,-21.27,-2.53,-17.286769.00,-8.61,-0.76,-5.71,0.54,0.02,-0.26,-21.27,-2.53,-17.286781.00,-8.45,-2.03,-4.23,0.59,0.01,-0.24,-21.27,-2.53,-17.286785.00,-8.45,-2.03,-4.23,0.59,0.01,-0.24,-21.27,-2.53,-17.286862.00,-9.31,-0.40,-5.10,-0.96,-0.02,0.55,-19.83,-3.04,-18.066941.00,-8.24,-1.58,-5.11,-0.06,-0.19,-0.06,-20.86,-1.85,-18.847018.00,-8.98,-1.20,-4.43,-0.10,-0.11,-0.10,-20.86,-1.85,-18.847109.00,-8.44,-2.38,-3.86,-0.02,-0.15,-0.03,-20.24,-1.34,-17.127121.00,-8.86,-1.44,-3.43,-0.05,0.08,0.25,-20.24,-1.34,-17.127131.00,-9.21,0.71,-5.58,-0.12,0.32,0.33,-20.24,-1.34,-17.127143.00,-9.21,0.71,-5.58,-0.12,0.32,0.33,-20.24,-1.34,-17.127155.00,-11.93,0.52,-3.77,0.01,0.19,-0.08,-20.24,-1.34,-17.127167.00,-11.93,0.52,-3.77,0.01,0.19,-0.08,-20.24,-1.34,-17.127179.00,-7.83,-1.62,-4.37,-0.08,0.27,-0.61,-21.89,0.03,-17.127190.00,-8.01,-1.52,-5.34,-0.16,0.19,-0.62,-21.89,0.03,-17.127203.00,-8.01,-1.52,-5.34,-0.16,0.19,-0.62,-21.89,0.03,-17.127214.00,-7.76,-0.69,-6.20,-0.18,0.03,-0.63,-21.89,0.03,-17.127225.00,-7.76,-0.69,-6.20,-0.18,0.03,-0.63,-21.89,0.03,-17.127237.00,-6.36,-2.23,-5.53,-0.06,-0.25,-0.73,-21.89,0.03,-17.127250.00,-6.36,-2.23,-5.53,-0.06,-0.25,-0.73,-21.89,0.03,-17.127261.00,-4.83,-2.44,-7.05,-0.08,-0.44,-0.29,-21.89,0.03,-17.127273.00,-16.54,-0.63,-3.78,-0.02,-0.82,0.21,-21.89,0.03,-17.127284.00,-16.54,-0.63,-3.78,-0.02,-0.82,0.21,-21.89,0.03,-17.127298.00,-9.17,-1.25,-2.51,-0.17,-0.38,0.17,-22.31,-1.34,-17.447309.00,-9.17,-1.25,-2.51,-0.17,-0.38,0.17,-22.31,-1.34,-17.447321.00,-8.00,-2.44,-5.46,-0.24,0.02,0.41,-22.31,-1.34,-17.447333.00,-8.60,1.94,-6.86,-0.31,0.08,0.79,-22.31,-1.34,-17.447347.00,-8.60,1.94,-6.86,-0.31,0.08,0.79,-22.31,-1.34,-17.447359.00,-9.03,-0.56,-3.91,0.13,-0.08,0.58,-22.31,-1.34,-17.447370.00,-9.18,-1.55,-3.07,0.04,-0.04,0.38,-22.31,-1.34,-17.447382.00,-9.18,-1.55,-3.07,0.04,-0.04,0.38,-22.31,-1.34,-17.447394.00,-9.31,-1.29,-3.86,-0.15,0.08,0.26,-22.31,-1.34,-17.447406.00,-9.31,-1.29,-3.86,-0.15,0.08,0.26,-22.31,-1.34,-17.447418.00,-9.13,0.38,-5.33,-0.26,0.12,0.06,-22.72,0.71,-18.377429.00,-9.13,0.38,-5.33,-0.26,0.12,0.06,-22.72,0.71,-18.377442.00,-10.14,-0.70,-4.51,-0.08,0.09,-0.39,-22.72,0.71,-18.377454.00,-6.52,-0.46,-6.17,0.01,0.25,-0.57,-22.72,0.71,-18.377465.00,-6.52,-0.46,-6.17,0.01,0.25,-0.57,-22.72,0.71,-18.377477.00,-5.84,-1.47,-7.26,0.33,0.08,-0.54,-22.72,0.71,-18.377490.00,-6.94,-2.22,-6.27,0.43,-0.36,-0.20,-22.72,0.71,-18.377502.00,-6.94,-2.22,-6.27,0.43,-0.36,-0.20,-22.72,0.71,-18.377513.00,-9.60,-2.62,-3.54,0.13,-0.44,0.04,-22.72,0.71,-18.377524.00,-9.60,-2.62,-3.54,0.13,-0.44,0.04,-22.72,0.71,-18.377538.00,-9.16,-1.93,-2.92,-0.27,-0.23,0.19,-22.51,-1.51,-16.667549.00,-9.16,-1.93,-2.92,-0.27,-0.23,0.19,-22.51,-1.51,-16.667561.00,-9.87,0.56,-4.99,-0.45,-0.05,0.24,-22.51,-1.51,-16.667572.00,-9.94,0.74,-4.25,-0.23,-0.16,-0.02,-22.51,-1.51,-16.667586.00,-9.94,0.74,-4.25,-0.23,-0.16,-0.02,-22.51,-1.51,-16.667598.00,-14.62,-0.85,1.49,-0.12,0.09,-0.33,-22.51,-1.51,-16.667608.00,-14.62,-0.85,1.49,-0.12,0.09,-0.33,-22.51,-1.51,-16.667620.00,-10.01,0.51,-1.21,-0.39,0.83,-0.43,-22.51,-1.51,-16.667635.00,-9.17,-2.40,-2.29,-0.24,0.70,-0.61,-22.51,-1.51,-16.667647.00,-9.17,-2.40,-2.29,-0.24,0.70,-0.61,-22.51,-1.51,-16.667658.00,-4.75,0.88,-9.19,-0.19,0.87,-0.43,-22.51,-1.51,-16.667670.00,-4.75,0.88,-9.19,-0.19,0.87,-0.43,-22.51,-1.51,-16.667683.00,-2.22,0.71,-9.12,0.93,0.52,-0.37,-20.04,0.20,-18.227695.00,-1.51,-5.11,-6.57,1.90,0.25,-0.09,-20.04,0.20,-18.227707.00,-1.51,-5.11,-6.57,1.90,0.25,-0.09,-20.04,0.20,-18.227719.00,-11.04,0.33,-12.97,1.26,0.13,0.64,-20.04,0.20,-18.227731.00,-8.38,-3.35,-3.32,1.36,-0.39,-0.08,-20.04,0.20,-18.227743.00,-8.38,-3.35,-3.32,1.36,-0.39,-0.08,-20.04,0.20,-18.227755.00,-7.75,-5.88,-2.25,0.97,-0.14,-0.33,-20.04,0.20,-18.227765.00,-7.75,-5.88,-2.25,0.97,-0.14,-0.33,-20.04,0.20,-18.227779.00,-9.08,-1.63,-5.70,-0.10,0.02,0.06,-20.04,0.20,-18.227791.00,-8.91,-1.28,-5.16,0.01,-0.01,-0.01,-20.24,-5.42,-19.007802.00,-8.91,-1.28,-5.16,0.01,-0.01,-0.01,-20.24,-5.42,-19.007814.00,-9.57,-1.41,-3.90,0.09,-0.06,-0.05,-20.24,-5.42,-19.007827.00,-9.57,-1.41,-3.90,0.09,-0.06,-0.05,-20.24,-5.42,-19.007838.00,-9.41,-1.39,-4.10,-0.15,0.01,-0.05,-20.24,-5.42,-19.007850.00,-9.41,-1.39,-4.10,-0.15,0.01,-0.05,-20.24,-5.42,-19.007862.00,-8.29,-1.21,-5.89,-0.30,0.13,-0.07,-20.24,-5.42,-19.007875.00,-7.51,-1.41,-6.45,-0.15,0.08,-0.13,-20.24,-5.42,-19.007887.00,-7.51,-1.41,-6.45,-0.15,0.08,-0.13,-20.24,-5.42,-19.007898.00,-8.09,-2.05,-5.36,0.11,-0.08,-0.17,-20.24,-5.42,-19.007910.00,-8.09,-2.05,-5.36,0.11,-0.08,-0.17,-20.24,-5.42,-19.007923.00,-8.67,-2.71,-4.30,0.14,-0.12,-0.18,-19.21,-4.91,-18.227934.00,-8.48,-2.23,-4.75,-0.13,-0.03,-0.14,-19.21,-4.91,-18.227946.00,-8.48,-2.23,-4.75,-0.13,-0.03,-0.14,-19.21,-4.91,-18.227958.00,-7.81,-2.03,-5.72,-0.31,-0.02,-0.14,-19.21,-4.91,-18.227972.00,-7.36,-2.20,-5.95,-0.35,-0.16,-0.09,-19.21,-4.91,-18.227984.00,-7.36,-2.20,-5.95,-0.35,-0.16,-0.09,-19.21,-4.91,-18.227995.00,-7.59,-1.86,-5.97,-0.37,-0.42,0.02,-19.21,-4.91,-18.228007.00,-7.59,-1.86,-5.97,-0.37,-0.42,0.02,-19.21,-4.91,-18.228020.00,-11.54,-1.19,-3.76,-0.21,-0.57,0.04,-19.21,-4.91,-18.228031.00,-8.51,-1.83,-4.73,-0.20,-0.21,0.03,-19.62,-2.87,-18.228043.00,-8.51,-1.83,-4.73,-0.20,-0.21,0.03,-19.62,-2.87,-18.228055.00,-7.92,-2.35,-5.64,-0.07,-0.05,0.23,-19.62,-2.87,-18.228068.00,-7.92,-2.35,-5.64,-0.07,-0.05,0.23,-19.62,-2.87,-18.228080.00,-8.58,-1.33,-5.18,0.06,0.02,0.48,-19.62,-2.87,-18.228092.00,-8.87,-1.51,-3.87,0.16,0.00,0.43,-19.62,-2.87,-18.228104.00,-8.87,-1.51,-3.87,0.16,0.00,0.43,-19.62,-2.87,-18.228117.00,-8.96,-0.87,-3.97,-0.02,0.03,0.40,-19.62,-2.87,-18.228128.00,-8.96,-0.87,-3.97,-0.02,0.03,0.40,-19.62,-2.87,-18.228140.00,-8.96,-3.09,-4.00,-0.17,0.07,0.23,-19.62,-2.87,-18.228152.00,-8.73,0.05,-5.73,-0.58,0.10,0.23,-19.62,-2.87,-18.228166.00,-8.73,0.05,-5.73,-0.58,0.10,0.23,-19.62,-2.87,-18.228176.00,-10.02,-0.68,-4.57,-0.37,0.13,-0.14,-20.45,-2.19,-17.598188.00,-10.02,-0.68,-4.57,-0.37,0.13,-0.14,-20.45,-2.19,-17.598200.00,-6.44,-0.79,-6.70,-0.23,0.42,-0.39,-20.45,-2.19,-17.598212.00,-6.76,-1.72,-6.63,0.18,0.16,-0.47,-20.45,-2.19,-17.598224.00,-6.76,-1.72,-6.63,0.18,0.16,-0.47,-20.45,-2.19,-17.598236.00,-6.59,-2.73,-6.54,0.29,-0.17,-0.38,-20.45,-2.19,-17.598248.00,-6.59,-2.73,-6.54,0.29,-0.17,-0.38,-20.45,-2.19,-17.598261.00,-8.25,-2.34,-5.37,0.18,-0.58,-0.08,-20.45,-2.19,-17.598272.00,-9.07,-3.93,-1.67,0.03,-0.46,0.03,-20.45,-2.19,-17.598284.00,-9.07,-3.93,-1.67,0.03,-0.46,0.03,-20.45,-2.19,-17.598296.00,-9.62,-0.26,-5.61,-0.58,-0.07,0.24,-21.48,-3.04,-19.008307.00,-9.62,-0.26,-5.61,-0.58,-0.07,0.24,-21.48,-3.04,-19.008321.00,-9.12,-0.86,-5.06,-0.50,-0.14,0.14,-21.48,-3.04,-19.008332.00,-8.56,-1.54,-4.88,-0.40,-0.12,0.13,-21.48,-3.04,-19.008344.00,-8.56,-1.54,-4.88,-0.40,-0.12,0.13,-21.48,-3.04,-19.008355.00,-8.38,-1.36,-5.16,-0.24,0.12,0.18,-21.48,-3.04,-19.008369.00,-8.38,-1.36,-5.16,-0.24,0.12,0.18,-21.48,-3.04,-19.008381.00,-6.66,-0.85,-7.18,-0.13,0.23,0.13,-21.48,-3.04,-19.008392.00,-6.80,-1.57,-6.95,0.20,-0.06,0.08,-21.48,-3.04,-19.008403.00,-6.80,-1.57,-6.95,0.20,-0.06,0.08,-21.48,-3.04,-19.008416.00,-8.49,-1.50,-5.93,0.39,-0.31,0.12,-21.27,-2.53,-18.538427.00,-8.49,-1.50,-5.93,0.39,-0.31,0.12,-21.27,-2.53,-18.538439.00,-8.75,-3.01,-3.62,0.37,-0.23,0.15,-21.27,-2.53,-18.538450.00,-9.29,-0.96,-4.03,0.09,-0.06,0.37,-21.27,-2.53,-18.538464.00,-9.29,-0.96,-4.03,0.09,-0.06,0.37,-21.27,-2.53,-18.538475.00,-8.69,-1.85,-4.75,0.00,0.05,0.35,-21.27,-2.53,-18.538487.00,-8.69,-1.85,-4.75,0.00,0.05,0.35,-21.27,-2.53,-18.538499.00,-8.72,-1.85,-5.03,-0.06,0.05,0.29,-21.27,-2.53,-18.538512.00,-8.61,-0.99,-4.81,-0.27,-0.00,0.30,-21.27,-2.53,-18.538524.00,-8.61,-0.99,-4.81,-0.27,-0.00,0.30,-21.27,-2.53,-18.538535.00,-8.61,-1.60,-5.12,-0.49,-0.03,0.26,-20.65,-0.65,-18.698546.00,-8.61,-1.60,-5.12,-0.49,-0.03,0.26,-20.65,-0.65,-18.698551.00,-8.56,-0.15,-5.74,-0.56,-0.10,0.13,-20.65,-0.65,-18.698629.00,-8.00,-1.48,-5.08,0.49,-0.15,-0.48,-20.65,-0.65,-18.698707.00,-8.76,-1.97,-4.47,-0.20,0.03,0.20,-22.10,-2.19,-18.848785.00,-7.89,0.80,-6.46,-0.24,-0.20,-0.16,-22.10,-2.19,-18.848874.00,-8.53,-3.92,-3.25,-0.23,0.02,0.29,-21.69,0.88,-17.288886.00,-8.53,-3.92,-3.25,-0.23,0.02,0.29,-21.69,0.88,-17.288898.00,-8.98,-0.15,-5.62,-0.72,0.04,0.49,-21.69,0.88,-17.288908.00,-8.98,-0.15,-5.62,-0.72,0.04,0.49,-21.69,0.88,-17.288922.00,-8.81,-0.43,-5.33,-0.61,-0.06,0.29,-21.69,-2.19,-17.288934.00,-8.48,-0.55,-5.02,-0.49,-0.13,0.06,-21.69,-2.19,-17.288945.00,-8.48,-0.55,-5.02,-0.49,-0.13,0.06,-21.69,-2.19,-17.288956.00,-8.26,0.00,-6.37,-0.24,-0.12,-0.17,-21.69,-2.19,-17.288970.00,-8.26,0.00,-6.37,-0.24,-0.12,-0.17,-21.69,-2.19,-17.288981.00,-8.14,-1.24,-5.44,0.06,-0.14,-0.26,-21.69,-2.19,-17.288991.00,-8.47,-0.52,-5.09,0.20,-0.11,-0.19,-21.69,-2.19,-17.289003.00,-8.47,-0.52,-5.09,0.20,-0.11,-0.19,-21.69,-2.19,-17.289016.00,-8.53,-1.51,-4.82,0.25,-0.07,-0.16,-21.69,-2.19,-17.289028.00,-8.53,-1.51,-4.82,0.25,-0.07,-0.16,-21.69,-2.19,-17.289039.00,-8.50,-2.63,-4.13,0.06,-0.02,-0.01,-20.86,-0.82,-18.229050.00,-8.50,-2.63,-4.13,0.06,-0.02,-0.01,-20.86,-0.82,-18.229063.00,-8.54,-2.36,-4.13,-0.32,0.06,0.27,-20.86,-0.82,-18.229074.00,-8.93,-1.29,-5.05,-0.58,0.08,0.36,-20.86,-0.82,-18.229086.00,-8.93,-1.29,-5.05,-0.58,0.08,0.36,-20.86,-0.82,-18.229098.00,-9.06,-0.75,-4.83,-0.64,-0.02,0.31,-20.86,-0.82,-18.229112.00,-8.44,0.21,-5.80,-0.60,-0.12,0.20,-20.86,-0.82,-18.229122.00,-8.44,0.21,-5.80,-0.60,-0.12,0.20,-20.86,-0.82,-18.229134.00,-8.12,0.52,-5.82,-0.20,-0.14,-0.02,-20.86,-0.82,-18.229146.00,-8.12,0.52,-5.82,-0.20,-0.14,-0.02,-20.86,-0.82,-18.229159.00,-8.53,0.08,-5.29,0.20,-0.17,-0.23,-20.86,-0.82,-18.229171.00,-8.63,-0.94,-5.23,0.27,-0.13,-0.20,-21.89,0.37,-18.379183.00,-8.63,-0.94,-5.23,0.27,-0.13,-0.20,-21.89,0.37,-18.379195.00,-8.44,-1.84,-4.62,0.06,-0.14,0.02,-21.89,0.37,-18.379209.00,-8.44,-1.84,-4.62,0.06,-0.14,0.02,-21.89,0.37,-18.379221.00,-8.72,0.86,-5.74,-0.21,-0.12,0.29,-21.89,0.37,-18.379231.00,-8.47,-0.04,-5.96,-0.03,-0.14,0.18,-21.89,0.37,-18.379243.00,-8.47,-0.04,-5.96,-0.03,-0.14,0.18,-21.89,0.37,-18.379256.00,-8.31,-0.44,-5.54,0.13,-0.17,0.10,-21.89,0.37,-18.379267.00,-8.31,-0.44,-5.54,0.13,-0.17,0.10,-21.89,0.37,-18.379279.00,-8.25,-0.06,-4.96,0.27,-0.16,0.01,-21.89,0.37,-18.379291.00,-8.56,0.17,-4.69,0.49,-0.05,-0.16,-21.89,0.37,-18.379304.00,-8.56,0.17,-4.69,0.49,-0.05,-0.16,-22.10,0.20,-18.849317.00,-9.20,-0.70,-3.29,0.54,-0.01,-0.29,-22.10,0.20,-18.849329.00,-9.20,-0.70,-3.29,0.54,-0.01,-0.29,-22.10,0.20,-18.849340.00,-9.69,-0.47,-3.49,0.28,0.13,-0.35,-22.10,0.20,-18.849354.00,-13.51,-2.10,-1.61,-0.01,0.18,-0.45,-22.10,0.20,-18.849366.00,-13.51,-2.10,-1.61,-0.01,0.18,-0.45,-22.10,0.20,-18.849377.00,-9.97,-1.10,-4.65,-0.64,0.72,-0.27,-22.10,0.20,-18.849389.00,-9.97,-1.10,-4.65,-0.64,0.72,-0.27,-22.10,0.20,-18.849402.00,-8.24,2.77,-7.22,-1.04,0.45,-0.06,-22.10,0.20,-18.849414.00,-7.80,-5.85,0.35,-0.40,-0.25,-0.53,-20.65,0.37,-18.069426.00,-7.80,-5.85,0.35,-0.40,-0.25,-0.53,-20.65,0.37,-18.069437.00,-6.02,0.79,-7.58,-0.97,0.30,-0.01,-20.65,0.37,-18.069451.00,-6.02,0.79,-7.58,-0.97,0.30,-0.01,-20.65,0.37,-18.069462.00,-4.61,-0.89,-7.95,-0.23,0.15,-0.03,-20.65,0.37,-18.069474.00,-5.78,-0.11,-9.52,0.62,0.31,0.11,-20.65,0.37,-18.069486.00,-5.78,-0.11,-9.52,0.62,0.31,0.11,-20.65,0.37,-18.069498.00,-8.61,0.39,-8.98,0.87,0.16,0.10,-20.65,0.37,-18.069511.00,-8.61,0.39,-8.98,0.87,0.16,0.10,-20.65,0.37,-18.069522.00,-8.16,-3.14,-4.45,0.99,-0.05,-0.14,-20.65,0.37,-18.069534.00,-8.67,-1.78,-4.16,0.59,-0.02,-0.06,-19.62,-0.48,-17.919544.00,-8.67,-1.78,-4.16,0.59,-0.02,-0.06,-19.62,-0.48,-17.919549.00,-8.67,-1.78,-4.16,0.59,-0.02,-0.06,-19.62,-0.48,-17.919627.00,-10.41,-0.94,-4.77,0.26,-0.71,0.04,-19.62,-0.48,-17.919704.00,-9.10,-1.53,-4.10,-0.48,-0.24,-0.12,-22.10,-2.87,-17.919782.00,-8.00,-1.75,-4.70,0.94,-0.09,-0.73,-22.10,-2.87,-17.919871.00,-9.13,-0.02,-4.94,-0.77,-0.05,0.80,-21.07,-2.70,-16.819883.00,-9.13,-0.02,-4.94,-0.77,-0.05,0.80,-21.07,-2.70,-16.819895.00,-8.91,-0.93,-5.04,-0.59,-0.11,0.51,-21.07,-2.70,-16.819907.00,-8.91,-0.93,-5.04,-0.59,-0.11,0.51,-21.07,-2.70,-16.819920.00,-9.00,-0.07,-4.59,-0.60,-0.15,0.30,-21.69,0.20,-18.539932.00,-8.50,1.10,-5.90,-0.46,-0.16,-0.04,-21.69,0.20,-18.539943.00,-8.50,1.10,-5.90,-0.46,-0.16,-0.04,-21.69,0.20,-18.539955.00,-7.91,-0.14,-6.01,-0.01,-0.18,-0.40,-21.69,0.20,-18.539968.00,-7.91,-0.14,-6.01,-0.01,-0.18,-0.40,-21.69,0.20,-18.539980.00,-8.24,0.35,-5.72,0.23,-0.11,-0.37,-21.69,0.20,-18.539992.00,-8.23,-1.56,-5.18,0.47,-0.04,-0.42,-21.69,0.20,-18.5310003.00,-8.23,-1.56,-5.18,0.47,-0.04,-0.42,-21.69,0.20,-18.5310017.00,-8.41,-1.62,-5.13,0.39,0.07,-0.23,-21.69,0.20,-18.5310027.00,-8.41,-1.62,-5.13,0.39,0.07,-0.23,-21.69,0.20,-18.5310040.00,-8.87,-2.28,-4.69,0.21,0.11,0.03,-20.04,-1.51,-17.2810052.00,-9.01,-1.76,-4.53,-0.18,0.08,0.30,-20.04,-1.51,-17.2810065.00,-9.01,-1.76,-4.53,-0.18,0.08,0.30,-20.04,-1.51,-17.2810076.00,-8.73,-2.85,-3.57,-0.43,-0.00,0.50,-20.04,-1.51,-17.2810088.00,-8.73,-2.85,-3.57,-0.43,-0.00,0.50,-20.04,-1.51,-17.2810099.00,-8.75,-1.78,-4.88,-0.64,-0.06,0.48,-20.04,-1.51,-17.2810113.00,-8.94,-0.48,-4.94,-0.64,-0.13,0.39,-20.04,-1.51,-17.2810125.00,-8.94,-0.48,-4.94,-0.64,-0.13,0.39,-20.04,-1.51,-17.2810137.00,-8.72,0.53,-5.34,-0.62,-0.15,0.21,-20.04,-1.51,-17.2810149.00,-8.72,0.53,-5.34,-0.62,-0.15,0.21,-20.04,-1.51,-17.2810162.00,-8.35,0.48,-5.91,-0.36,-0.16,-0.14,-20.65,0.03,-17.4410174.00,-8.39,0.45,-5.70,-0.06,-0.17,-0.34,-20.65,0.03,-17.4410185.00,-8.39,0.45,-5.70,-0.06,-0.17,-0.34,-20.65,0.03,-17.4410196.00,-8.28,-1.68,-4.41,0.15,-0.19,-0.43,-20.65,0.03,-17.4410210.00,-8.28,-1.68,-4.41,0.15,-0.19,-0.43,-20.65,0.03,-17.4410222.00,-8.35,-0.55,-5.56,0.00,-0.10,-0.18,-20.65,0.03,-17.4410233.00,-8.67,-1.30,-4.77,0.03,-0.11,-0.04,-20.65,0.03,-17.4410245.00,-8.67,-1.30,-4.77,0.03,-0.11,-0.04,-20.65,0.03,-17.4410258.00,-8.38,-1.54,-4.68,-0.05,-0.14,0.15,-20.65,0.03,-17.4410269.00,-8.38,-1.54,-4.68,-0.05,-0.14,0.15,-20.65,0.03,-17.4410281.00,-8.41,-0.98,-5.88,-0.02,-0.13,0.23,-20.65,0.03,-17.4410293.00,-8.49,0.26,-5.82,0.13,-0.18,0.16,-20.04,2.24,-17.2810306.00,-8.49,0.26,-5.82,0.13,-0.18,0.16,-20.04,2.24,-17.2810318.00,-8.59,-0.35,-5.23,0.35,-0.20,0.03,-20.04,2.24,-17.2810330.00,-8.59,-0.35,-5.23,0.35,-0.20,0.03,-20.04,2.24,-17.2810341.00,-8.09,-1.70,-4.67,0.44,-0.16,-0.03,-20.04,2.24,-17.2810356.00,-8.91,-0.02,-4.70,0.42,-0.02,-0.01,-20.04,2.24,-17.2810368.00,-8.91,-0.02,-4.70,0.42,-0.02,-0.01,-20.04,2.24,-17.2810379.00,-9.53,-1.04,-3.23,0.37,0.00,-0.18,-20.04,2.24,-17.2810391.00,-9.53,-1.04,-3.23,0.37,0.00,-0.18,-20.04,2.24,-17.2810404.00,-9.47,-1.42,-2.78,0.15,0.18,-0.20,-20.04,2.24,-17.2810416.00,-12.55,-1.47,-2.01,0.02,0.27,-0.26,-20.45,-0.48,-18.2210428.00,-12.55,-1.47,-2.01,0.02,0.27,-0.26,-20.45,-0.48,-18.2210440.00,-10.36,-2.42,-3.72,-0.31,0.66,-0.24,-20.45,-0.48,-18.2210454.00,-6.87,1.39,-9.52,-0.66,0.53,-0.04,-20.45,-0.48,-18.2210465.00,-6.87,1.39,-9.52,-0.66,0.53,-0.04,-20.45,-0.48,-18.2210477.00,-8.92,-3.78,0.94,0.08,-0.62,-0.50,-20.45,-0.48,-18.2210489.00,-8.92,-3.78,0.94,0.08,-0.62,-0.50,-20.45,-0.48,-18.2210502.00,-5.95,-0.59,-7.16,-0.28,0.14,-0.02,-20.45,-0.48,-18.2210514.00,-5.21,0.75,-10.15,0.09,0.23,0.25,-20.45,-0.48,-18.2210526.00,-5.21,0.75,-10.15,0.09,0.23,0.25,-20.45,-0.48,-18.2210537.00,-6.52,-0.41,-9.16,1.08,0.19,0.15,-21.27,-0.82,-18.5310550.00,-6.52,-0.41,-9.16,1.08,0.19,0.15,-21.27,-0.82,-18.5310560.00,-7.37,-1.30,-7.81,1.27,0.24,0.12,-21.27,-0.82,-18.5310572.00,-8.89,-2.90,-3.62,1.06,0.02,0.01,-21.27,-0.82,-18.5310584.00,-8.89,-2.90,-3.62,1.06,0.02,0.01,-21.27,-0.82,-18.5310597.00,-9.52,-1.98,-3.04,0.51,0.02,0.02,-21.27,-0.82,-18.5310609.00,-9.52,-1.98,-3.04,0.51,0.02,0.02,-21.27,-0.82,-18.5310621.00,-8.70,-1.20,-4.37,0.22,0.09,0.02,-21.27,-0.82,-18.5310632.00,-8.79,-0.47,-5.77,0.18,0.12,-0.00,-21.27,-0.82,-18.5310646.00,-8.79,-0.47,-5.77,0.18,0.12,-0.00,-21.27,-0.82,-18.5310657.00,-8.63,-1.10,-5.41,0.26,0.05,-0.09,-19.21,-2.19,-18.2210667.00,-8.63,-1.10,-5.41,0.26,0.05,-0.09,-19.21,-2.19,-18.2210679.00,-8.42,-1.86,-4.85,0.21,-0.02,-0.11,-19.21,-2.19,-18.2210693.00,-8.31,-1.70,-5.22,0.03,-0.03,-0.04,-19.21,-2.19,-18.2210705.00,-8.31,-1.70,-5.22,0.03,-0.03,-0.04,-19.21,-2.19,-18.2210717.00,-7.93,-1.76,-5.60,-0.00,-0.03,0.01,-19.21,-2.19,-18.2210728.00,-7.93,-1.76,-5.60,-0.00,-0.03,0.01,-19.21,-2.19,-18.2210741.00,-8.04,-1.76,-5.40,0.01,-0.08,0.07,-19.21,-2.19,-18.2210753.00,-7.89,-1.34,-5.92,-0.04,-0.21,0.11,-19.21,-2.19,-18.2210764.00,-7.89,-1.34,-5.92,-0.04,-0.21,0.11,-19.21,-2.19,-18.2210775.00,-8.12,-0.82,-6.08,0.01,-0.45,0.09,-19.21,-2.19,-18.2210788.00,-8.12,-0.82,-6.08,0.01,-0.45,0.09,-19.21,-2.19,-18.2210800.00,-8.98,-2.73,-4.13,0.14,-0.45,-0.11,-19.62,-3.21,-16.9710812.00,-8.91,-1.29,-4.43,-0.16,-0.22,-0.08,-19.62,-3.21,-16.9710824.00,-8.91,-1.29,-4.43,-0.16,-0.22,-0.08,-19.62,-3.21,-16.9710838.00,-8.83,-0.99,-4.67,-0.29,-0.19,-0.15,-19.62,-3.21,-16.9710850.00,-8.83,-0.99,-4.67,-0.29,-0.19,-0.15,-19.62,-3.21,-16.9710861.00,-8.60,-1.74,-4.76,-0.29,-0.24,-0.24,-19.62,-3.21,-16.9710872.00,-8.38,-0.80,-5.69,-0.26,-0.24,-0.14,-19.62,-3.21,-16.9710886.00,-8.38,-0.80,-5.69,-0.26,-0.24,-0.14,-19.62,-3.21,-16.9710898.00,-8.44,-1.73,-4.71,0.12,-0.23,-0.07,-19.62,-3.21,-16.9710909.00,-8.44,-1.73,-4.71,0.12,-0.23,-0.07,-19.62,-3.21,-16.9710921.00,-8.37,-1.52,-4.99,0.16,-0.12,0.16,-19.21,-2.87,-18.2210934.00,-8.42,-1.30,-5.26,0.16,-0.05,0.25,-19.21,-2.87,-18.2210945.00,-8.42,-1.30,-5.26,0.16,-0.05,0.25,-19.21,-2.87,-18.2210957.00,-8.61,-1.63,-4.72,0.16,-0.08,0.12,-19.21,-2.87,-18.2210969.00,-8.61,-1.63,-4.72,0.16,-0.08,0.12,-19.21,-2.87,-18.2210982.00,-8.61,-1.77,-4.41,-0.01,-0.11,0.00,-19.21,-2.87,-18.2210993.00,-8.81,-0.72,-4.96,-0.23,-0.09,-0.05,-19.21,-2.87,-18.2211005.00,-8.81,-0.72,-4.96,-0.23,-0.09,-0.05,-19.21,-2.87,-18.2211016.00,-8.96,-1.20,-4.50,-0.21,-0.15,-0.24,-19.21,-2.87,-18.2211030.00,-8.96,-1.20,-4.50,-0.21,-0.15,-0.24,-19.21,-2.87,-18.2211042.00,-8.31,-2.59,-4.25,-0.23,-0.19,-0.32,-20.04,-3.55,-19.4711054.00,-8.22,-1.00,-5.38,-0.26,-0.11,-0.13,-20.04,-3.55,-19.4711067.00,-8.22,-1.00,-5.38,-0.26,-0.11,-0.13,-20.04,-3.55,-19.4711079.00,-8.54,-1.84,-5.16,0.04,-0.08,-0.06,-20.04,-3.55,-19.4711089.00,-8.54,-1.84,-5.16,0.04,-0.08,-0.06,-20.04,-3.55,-19.4711101.00,-8.42,-2.41,-4.43,0.07,-0.07,0.12,-20.04,-3.55,-19.4711115.00,-8.59,-1.00,-5.28,-0.09,-0.02,0.25,-20.04,-3.55,-19.4711127.00,-8.59,-1.00,-5.28,-0.09,-0.02,0.25,-20.04,-3.55,-19.4711138.00,-8.67,-1.35,-4.57,-0.05,-0.08,0.11,-20.04,-3.55,-19.4711150.00,-8.67,-1.35,-4.57,-0.05,-0.08,0.11,-20.04,-3.55,-19.4711163.00,-8.79,-1.09,-4.65,-0.13,-0.08,0.01,-20.24,-1.68,-16.5011175.00,-9.12,-0.95,-4.53,-0.17,-0.10,-0.12,-20.24,-1.68,-16.5011187.00,-9.12,-0.95,-4.53,-0.17,-0.10,-0.12,-20.24,-1.68,-16.5011199.00,-8.63,-2.34,-4.08,-0.19,-0.19,-0.28,-20.24,-1.68,-16.5011212.00,-8.21,-1.47,-5.49,-0.25,-0.13,-0.18,-20.24,-1.68,-16.5011224.00,-8.21,-1.47,-5.49,-0.25,-0.13,-0.18,-20.24,-1.68,-16.5011236.00,-8.46,-1.84,-4.89,-0.05,-0.04,-0.03,-20.24,-1.68,-16.5011247.00,-8.46,-1.84,-4.89,-0.05,-0.04,-0.03,-20.24,-1.68,-16.5011251.00,-8.81,-1.69,-3.91,-0.02,0.08,0.24,-20.24,-1.68,-16.5011331.00,-8.03,-1.87,-4.62,-0.29,0.22,-0.12,-20.04,-2.87,-17.2811408.00,-8.91,-2.11,-3.11,0.15,-0.34,-0.02,-20.04,-2.87,-17.2811487.00,-8.75,-1.55,-3.38,0.27,-0.05,0.02,-21.69,-1.85,-17.2811576.00,-8.07,-0.52,-5.49,-0.47,-0.17,-0.04,-20.65,-1.68,-17.7511588.00,-8.07,-0.52,-5.49,-0.47,-0.17,-0.04,-20.65,-1.68,-17.7511600.00,-7.99,-0.01,-6.73,-0.05,-0.12,-0.21,-20.65,-1.68,-17.7511611.00,-7.99,-0.01,-6.73,-0.05,-0.12,-0.21,-20.65,-1.68,-17.7511624.00,-8.63,0.20,-5.16,0.22,-0.16,-0.17,-20.65,-1.68,-17.7511636.00,-8.70,-1.80,-3.63,0.36,-0.15,-0.19,-20.65,-1.68,-17.7511647.00,-8.70,-1.80,-3.63,0.36,-0.15,-0.19,-20.65,-1.68,-17.7511659.00,-8.81,-2.08,-4.20,0.07,0.01,0.05,-22.10,-0.48,-18.2211672.00,-8.81,-2.08,-4.20,0.07,0.01,0.05,-22.10,-0.48,-18.2211683.00,-9.29,-0.54,-4.40,-0.34,0.09,0.32,-22.10,-0.48,-18.2211695.00,-9.56,-0.57,-4.34,-0.52,0.07,0.31,-22.10,-0.48,-18.2211706.00,-9.56,-0.57,-4.34,-0.52,0.07,0.31,-22.10,-0.48,-18.2211720.00,-9.20,1.08,-5.01,-0.51,0.03,0.10,-22.10,-0.48,-18.2211731.00,-9.20,1.08,-5.01,-0.51,0.03,0.10,-22.10,-0.48,-18.2211742.00,-10.97,-1.81,-2.52,-0.15,0.18,-0.41,-22.10,-0.48,-18.2211754.00,-6.76,-0.85,-6.22,-0.39,0.70,-0.44,-22.10,-0.48,-18.2211767.00,-6.76,-0.85,-6.22,-0.39,0.70,-0.44,-22.10,-0.48,-18.2211779.00,-7.05,-0.73,-7.06,-0.22,0.40,-0.45,-22.10,-0.48,-18.2211790.00,-7.05,-0.73,-7.06,-0.22,0.40,-0.45,-22.10,-0.48,-18.2211802.00,-6.20,-0.24,-7.77,0.09,0.12,-0.50,-21.48,0.03,-18.0611815.00,-7.54,-1.41,-5.88,0.40,-0.31,-0.55,-21.48,0.03,-18.0611826.00,-7.54,-1.41,-5.88,0.40,-0.31,-0.55,-21.48,0.03,-18.0611838.00,-7.41,-2.85,-4.83,0.45,-0.53,-0.38,-21.48,0.03,-18.0611848.00,-7.41,-2.85,-4.83,0.45,-0.53,-0.38,-21.48,0.03,-18.0611862.00,-8.87,-1.62,-4.86,0.09,-0.65,0.07,-21.48,0.03,-18.0611874.00,-9.00,-1.13,-4.86,-0.21,-0.37,0.20,-21.48,0.03,-18.0611886.00,-9.00,-1.13,-4.86,-0.21,-0.37,0.20,-21.48,0.03,-18.0611898.00,-8.71,-2.32,-4.95,-0.21,-0.16,0.36,-21.48,0.03,-18.0611911.00,-8.71,-2.32,-4.95,-0.21,-0.16,0.36,-21.48,0.03,-18.0611923.00,-8.98,-0.85,-5.35,-0.26,-0.09,0.67,-20.86,-0.82,-16.9711935.00,-9.20,0.09,-4.52,-0.07,-0.12,0.67,-20.86,-0.82,-16.9711946.00,-9.20,0.09,-4.52,-0.07,-0.12,0.67,-20.86,-0.82,-16.9711960.00,-8.87,-0.12,-4.51,0.00,-0.07,0.58,-20.86,-0.82,-16.9711972.00,-8.87,-0.12,-4.51,0.00,-0.07,0.58,-20.86,-0.82,-16.9711983.00,-9.31,-0.31,-3.82,0.08,-0.01,0.35,-20.86,-0.82,-16.9711994.00,-11.67,0.82,-3.86,0.14,0.04,0.01,-20.86,-0.82,-16.9712008.00,-11.67,0.82,-3.86,0.14,0.04,0.01,-20.86,-0.82,-16.9712020.00,-8.67,-1.61,-3.58,-0.04,0.30,-0.64,-20.86,-0.82,-16.9712032.00,-5.95,-1.39,-6.71,-0.18,0.50,-0.73,-20.86,-0.82,-16.9712044.00,-5.95,-1.39,-6.71,-0.18,0.50,-0.73,-18.80,0.20,-16.0312057.00,-4.84,-1.35,-8.55,0.01,0.19,-0.63,-18.80,0.20,-16.0312069.00,-4.84,-1.35,-8.55,0.01,0.19,-0.63,-18.80,0.20,-16.0312081.00,-6.12,-1.69,-7.87,0.33,-0.55,-0.31,-18.80,0.20,-16.0312092.00,-12.94,-0.79,-0.37,0.44,-1.09,-0.02,-18.80,0.20,-16.0312106.00,-12.94,-0.79,-0.37,0.44,-1.09,-0.02,-18.80,0.20,-16.0312117.00,-9.82,-1.58,-1.16,-0.04,-0.50,-0.03,-18.80,0.20,-16.0312128.00,-9.82,-1.58,-1.16,-0.04,-0.50,-0.03,-18.80,0.20,-16.0312141.00,-9.58,0.32,-6.04,-0.34,-0.18,0.01,-18.80,0.20,-16.0312154.00,-9.18,-0.44,-4.81,-0.07,-0.32,-0.23,-23.13,0.37,-17.1212166.00,-9.18,-0.44,-4.81,-0.07,-0.32,-0.23,-23.13,0.37,-17.1212177.00,-12.93,-0.80,-0.34,0.01,-0.20,-0.28,-23.13,0.37,-17.1212188.00,-12.93,-0.80,-0.34,0.01,-0.20,-0.28,-23.13,0.37,-17.1212201.00,-6.44,-2.72,-4.30,-0.27,0.55,-0.31,-23.13,0.37,-17.1212213.00,-6.51,-1.65,-7.00,-0.34,0.55,-0.08,-23.13,0.37,-17.1212225.00,-6.51,-1.65,-7.00,-0.34,0.55,-0.08,-23.13,0.37,-17.1212236.00,-3.53,-1.86,-9.32,-0.05,0.31,0.07,-23.13,0.37,-17.1212240.00,-3.53,-1.86,-9.32,-0.05,0.31,0.07,-23.13,0.37,-17.1212318.00,-9.26,-1.19,-3.16,-0.08,-0.13,0.21,-21.48,0.71,-17.4412397.00,-11.80,0.54,-3.43,0.06,-0.05,-0.31,-21.48,0.71,-17.4412474.00,-9.33,-1.67,-4.10,0.27,-0.53,0.06,-21.48,-1.34,-18.3712565.00,-7.90,-1.24,-5.10,-0.10,0.10,-0.17,-22.93,-1.17,-16.9712577.00,-6.76,-3.17,-4.83,-0.07,0.07,-0.06,-22.93,-1.17,-16.9712588.00,-6.76,-3.17,-4.83,-0.07,0.07,-0.06,-22.93,-1.17,-16.9712600.00,-5.70,-2.57,-5.58,-0.15,-0.09,0.30,-22.93,-1.17,-16.9712613.00,-8.22,-1.13,-5.89,-0.05,-0.41,0.55,-22.93,-1.17,-16.9712624.00,-8.22,-1.13,-5.89,-0.05,-0.41,0.55,-22.93,-1.17,-16.9712636.00,-10.12,-1.64,-2.69,-0.01,-0.48,0.31,-22.93,-1.17,-16.9712648.00,-10.12,-1.64,-2.69,-0.01,-0.48,0.31,-22.93,-1.17,-16.9712661.00,-9.52,-0.71,-3.46,-0.32,-0.10,0.16,-22.31,-0.65,-16.1912673.00,-9.08,0.87,-5.02,-0.44,-0.07,-0.07,-22.31,-0.65,-16.1912685.00,-9.08,0.87,-5.02,-0.44,-0.07,-0.07,-22.31,-0.65,-16.1912697.00,-8.64,-1.20,-5.07,-0.31,-0.20,-0.27,-22.31,-0.65,-16.1912710.00,-8.64,-1.20,-5.07,-0.31,-0.20,-0.27,-22.31,-0.65,-16.1912722.00,-8.61,-1.17,-4.56,-0.32,-0.20,-0.13,-22.31,-0.65,-16.1912734.00,-8.83,-1.13,-4.30,-0.14,-0.12,-0.04,-22.31,-0.65,-16.1912747.00,-8.83,-1.13,-4.30,-0.14,-0.12,-0.04,-22.31,-0.65,-16.1912759.00,-8.50,-1.97,-3.93,-0.14,-0.03,0.18,-22.31,-0.65,-16.1912770.00,-8.50,-1.97,-3.93,-0.14,-0.03,0.18,-22.31,-0.65,-16.1912782.00,-9.12,0.06,-5.38,-0.23,0.01,0.30,-22.31,-0.65,-16.1912796.00,-8.92,-1.33,-3.75,-0.10,-0.10,0.10,-22.31,-0.65,-16.1912808.00,-8.92,-1.33,-3.75,-0.10,-0.10,0.10,-22.31,-0.65,-16.1912820.00,-9.20,-1.35,-3.71,-0.19,-0.04,0.07,-22.31,-0.65,-16.1912832.00,-9.20,-1.35,-3.71,-0.19,-0.04,0.07,-22.31,-0.65,-16.1912844.00,-9.25,0.53,-4.61,-0.34,-0.08,-0.02,-22.31,-0.65,-16.1912856.00,-8.52,-1.45,-4.50,-0.26,-0.17,-0.26,-22.31,-0.65,-16.1912868.00,-8.52,-1.45,-4.50,-0.26,-0.17,-0.26,-22.31,-0.65,-16.1912879.00,-8.60,-0.51,-4.74,-0.22,-0.16,-0.19,-22.31,-0.65,-16.1912892.00,-8.60,-0.51,-4.74,-0.22,-0.16,-0.19,-22.31,-0.65,-16.1912904.00,-8.90,-1.62,-3.91,-0.11,-0.11,-0.06,-22.31,-0.65,-16.1912915.00,-9.01,-2.03,-3.31,-0.23,0.00,0.16,-22.51,0.20,-16.9712927.00,-9.01,-2.03,-3.31,-0.23,0.00,0.16,-22.51,0.20,-16.9712940.00,-9.05,-0.43,-4.63,-0.44,0.07,0.34,-22.51,0.20,-16.9712952.00,-9.08,-0.28,-5.31,-0.43,-0.02,0.23,-22.51,0.20,-16.9712963.00,-9.08,-0.28,-5.31,-0.43,-0.02,0.23,-22.51,0.20,-16.9712975.00,-9.01,-0.29,-4.04,-0.32,-0.18,0.03,-22.51,0.20,-16.9712988.00,-9.01,-0.29,-4.04,-0.32,-0.18,0.03,-22.51,0.20,-16.9713000.00,-8.90,-0.56,-4.12,-0.20,-0.12,-0.09,-22.51,0.20,-16.9713012.00,-8.90,-0.56,-4.12,-0.20,-0.12,-0.09,-22.51,0.20,-16.9713023.00,-8.76,0.25,-4.95,-0.06,-0.10,-0.20,-22.51,0.20,-16.9713037.00,-8.65,-0.47,-5.18,0.05,-0.15,-0.20,-23.75,1.56,-16.0313048.00,-8.65,-0.47,-5.18,0.05,-0.15,-0.20,-23.75,1.56,-16.0313059.00,-8.99,-1.22,-4.56,0.09,-0.19,-0.05,-23.75,1.56,-16.0313071.00,-8.99,-1.22,-4.56,0.09,-0.19,-0.05,-23.75,1.56,-16.0313084.00,-8.67,-2.51,-3.38,-0.04,-0.23,0.16,-23.75,1.56,-16.0313096.00,-8.92,0.23,-5.22,-0.12,-0.11,0.35,-23.75,1.56,-16.0313108.00,-8.92,0.23,-5.22,-0.12,-0.11,0.35,-23.75,1.56,-16.0313119.00,-8.69,-0.22,-5.15,0.12,-0.17,0.16,-23.75,1.56,-16.0313133.00,-8.82,-0.53,-4.59,0.41,-0.23,0.02,-23.75,1.56,-16.0313145.00,-8.82,-0.53,-4.59,0.41,-0.23,0.02,-23.75,1.56,-16.0313157.00,-8.96,-0.90,-3.14,0.66,-0.19,-0.10,-25.20,1.39,-15.8713168.00,-8.96,-0.90,-3.14,0.66,-0.19,-0.10,-25.20,1.39,-15.8713182.00,-9.46,-1.55,-1.99,0.59,0.02,-0.16,-25.20,1.39,-15.8713194.00,-9.17,-0.17,-2.80,0.36,0.35,-0.17,-25.20,1.39,-15.8713204.00,-9.17,-0.17,-2.80,0.36,0.35,-0.17,-25.20,1.39,-15.8713216.00,-13.39,-0.92,-2.16,0.26,0.64,-0.34,-25.20,1.39,-15.8713229.00,-13.39,-0.92,-2.16,0.26,0.64,-0.34,-25.20,1.39,-15.8713240.00,-8.00,-1.81,-3.63,-0.07,1.09,-0.25,-25.20,1.39,-15.8713251.00,-8.00,-1.81,-3.63,-0.07,1.09,-0.25,-25.20,1.39,-15.8713262.00,-10.91,0.79,-0.93,-0.22,0.64,-0.06,-25.20,1.39,-15.8713276.00,-9.20,-1.42,-3.74,-0.08,0.56,-0.28,-21.69,-0.82,-16.9713288.00,-9.20,-1.42,-3.74,-0.08,0.56,-0.28,-21.69,-0.82,-16.9713300.00,-6.15,1.23,-7.09,0.13,0.25,-0.29,-21.69,-0.82,-16.9713312.00,-6.15,1.23,-7.09,0.13,0.25,-0.29,-21.69,-0.82,-16.9713325.00,-3.83,-2.93,-6.18,0.82,-0.12,-0.33,-21.69,-0.82,-16.9713336.00,-4.06,-3.51,-7.56,0.96,0.08,0.22,-21.69,-0.82,-16.9713348.00,-4.06,-3.51,-7.56,0.96,0.08,0.22,-21.69,-0.82,-16.9713360.00,-9.62,-0.09,-10.69,0.71,0.26,0.63,-21.69,-0.82,-16.9713373.00,-8.71,-1.00,-6.15,0.58,0.20,0.30,-21.69,-0.82,-16.9713385.00,-8.71,-1.00,-6.15,0.58,0.20,0.30,-21.69,-0.82,-16.9713396.00,-8.33,-2.76,-2.99,0.58,0.24,-0.01,-21.69,-0.82,-16.9713407.00,-8.33,-2.76,-2.99,0.58,0.24,-0.01,-21.69,-0.82,-16.9713422.00,-9.47,-1.42,-4.51,0.14,0.23,0.05,-21.07,-2.36,-17.4413433.00,-9.61,-1.59,-3.48,-0.04,0.09,0.06,-21.07,-2.36,-17.4413444.00,-9.61,-1.59,-3.48,-0.04,0.09,0.06,-21.07,-2.36,-17.4413455.00,-9.55,-0.40,-4.58,-0.37,0.08,0.15,-21.07,-2.36,-17.4413469.00,-9.55,-0.40,-4.58,-0.37,0.08,0.15,-21.07,-2.36,-17.4413481.00,-9.13,0.08,-5.31,-0.44,0.03,0.10,-21.07,-2.36,-17.4413492.00,-9.13,0.08,-5.31,-0.44,0.03,0.10,-21.07,-2.36,-17.4413504.00,-8.17,-1.46,-5.32,-0.25,-0.03,-0.04,-21.07,-2.36,-17.4413517.00,-7.82,-1.60,-5.64,-0.18,-0.11,-0.01,-21.07,-2.36,-17.4413528.00,-7.82,-1.60,-5.64,-0.18,-0.11,-0.01,-21.07,-2.36,-17.4413540.00,-7.63,-1.08,-6.19,-0.09,-0.26,0.01,-20.24,-0.65,-17.1213552.00,-7.63,-1.08,-6.19,-0.09,-0.26,0.01,-20.24,-0.65,-17.1213566.00,-9.50,-1.26,-5.10,0.08,-0.49,-0.09,-20.24,-0.65,-17.1213578.00,-8.35,-1.03,-4.99,0.04,-0.28,-0.15,-20.24,-0.65,-17.1213590.00,-8.35,-1.03,-4.99,0.04,-0.28,-0.15,-20.24,-0.65,-17.1213602.00,-8.20,-0.20,-4.73,0.31,-0.12,-0.15,-20.24,-0.65,-17.1213615.00,-8.17,-0.50,-4.59,0.89,0.05,-0.19,-20.24,-0.65,-17.1213627.00,-8.17,-0.50,-4.59,0.89,0.05,-0.19,-20.24,-0.65,-17.1213639.00,-8.60,-2.32,-3.84,1.07,0.14,-0.10,-20.24,-0.65,-17.1213650.00,-8.60,-2.32,-3.84,1.07,0.14,-0.10,-20.24,-0.65,-17.1213664.00,-9.12,-2.54,-2.98,0.56,0.13,0.07,-21.89,-2.70,-16.8113675.00,-9.05,-3.24,-3.84,0.01,0.14,0.23,-21.89,-2.70,-16.8113687.00,-9.05,-3.24,-3.84,0.01,0.14,0.23,-21.89,-2.70,-16.8113699.00,-9.53,-1.81,-4.90,-0.60,0.01,0.37,-21.89,-2.70,-16.8113712.00,-9.53,-1.81,-4.90,-0.60,0.01,0.37,-21.89,-2.70,-16.8113723.00,-9.14,0.99,-5.71,-0.85,-0.34,0.03,-21.89,-2.70,-16.8113734.00,-7.78,-0.69,-4.81,-0.43,-0.56,-0.68,-21.89,-2.70,-16.8113746.00,-7.78,-0.69,-4.81,-0.43,-0.56,-0.68,-21.89,-2.70,-16.8113759.00,-7.34,-1.15,-6.17,-0.20,-0.49,-0.90,-21.89,-2.70,-16.8113770.00,-7.34,-1.15,-6.17,-0.20,-0.49,-0.90,-21.89,-2.70,-16.8113782.00,-7.97,-2.50,-5.23,0.18,-0.32,-0.72,-23.55,-3.72,-15.8713794.00,-8.45,-1.33,-4.62,0.10,-0.15,-0.34,-23.55,-3.72,-15.8713807.00,-8.45,-1.33,-4.62,0.10,-0.15,-0.34,-23.55,-3.72,-15.8713819.00,-8.67,-3.81,-4.00,0.14,0.06,-0.04,-23.55,-3.72,-15.8713831.00,-8.67,-3.81,-4.00,0.14,0.06,-0.04,-23.55,-3.72,-15.8713842.00,-9.09,-2.61,-4.87,-0.16,0.24,0.39,-23.55,-3.72,-15.8713856.00,-8.97,-2.30,-3.73,-0.19,0.18,0.51,-23.55,-3.72,-15.8713868.00,-8.97,-2.30,-3.73,-0.19,0.18,0.51,-23.55,-3.72,-15.8713880.00,-9.12,-1.57,-4.52,-0.16,0.14,0.49,-23.55,-3.72,-15.8713892.00,-9.12,-1.57,-4.52,-0.16,0.14,0.49,-23.55,-3.72,-15.8713905.00,-8.88,-0.93,-4.88,-0.20,0.10,0.42,-23.55,-3.72,-15.8713916.00,-10.05,-0.15,-4.17,-0.30,-0.05,0.19,-20.65,-1.68,-17.1213928.00,-10.05,-0.15,-4.17,-0.30,-0.05,0.19,-20.65,-1.68,-17.1213940.00,-7.72,-2.18,-4.02,-0.35,-0.08,-0.19,-20.65,-1.68,-17.1213953.00,-7.58,-1.25,-5.97,-0.33,-0.11,-0.19,-20.65,-1.68,-17.1213965.00,-7.58,-1.25,-5.97,-0.33,-0.11,-0.19,-20.65,-1.68,-17.1213976.00,-6.56,-1.83,-6.76,-0.08,-0.21,-0.12,-20.65,-1.68,-17.1213988.00,-6.56,-1.83,-6.76,-0.08,-0.21,-0.12,-20.65,-1.68,-17.1213992.00,-6.56,-1.83,-6.76,-0.08,-0.21,-0.12,-20.65,-1.68,-17.1214070.00,-9.28,-0.12,-4.24,0.10,0.07,0.21,-21.07,-0.65,-16.8114148.00,-9.16,1.22,-4.98,-0.54,-0.18,-0.03,-21.07,-0.65,-16.8114225.00,-8.55,-1.87,-4.27,-0.08,-0.12,0.11,-20.65,-1.34,-17.1214316.00,-8.69,-1.88,-4.37,-0.18,-0.19,-0.35,-21.07,-0.65,-17.4414328.00,-8.69,-1.88,-4.37,-0.18,-0.19,-0.35,-21.07,-0.65,-17.4414339.00,-8.16,-1.22,-5.22,-0.24,-0.17,-0.26,-21.07,-0.65,-17.4414351.00,-8.16,-1.22,-5.22,-0.24,-0.17,-0.26,-21.07,-0.65,-17.4414364.00,-8.52,-0.72,-5.36,-0.15,-0.11,-0.09,-21.07,-0.65,-17.4414376.00,-8.77,-2.48,-3.70,-0.08,-0.12,0.03,-21.07,-0.65,-17.4414388.00,-8.77,-2.48,-3.70,-0.08,-0.12,0.03,-21.07,-0.65,-17.4414399.00,-9.00,-1.45,-4.24,-0.27,-0.04,0.26,-21.07,-0.65,-17.4414413.00,-9.00,-1.45,-4.24,-0.27,-0.04,0.26,-21.07,-0.65,-17.4414424.00,-8.98,-1.26,-4.45,-0.35,-0.04,0.27,-21.89,0.37,-16.5014435.00,-8.97,-0.67,-4.58,-0.39,-0.08,0.21,-21.89,0.37,-16.5014448.00,-8.97,-0.67,-4.58,-0.39,-0.08,0.21,-21.89,0.37,-16.5014460.00,-8.88,0.20,-4.95,-0.34,-0.13,0.06,-21.89,0.37,-16.5014471.00,-8.88,0.20,-4.95,-0.34,-0.13,0.06,-21.89,0.37,-16.5014483.00,-8.60,0.11,-5.32,-0.15,-0.16,-0.15,-21.89,0.37,-16.5014495.00,-8.62,-0.51,-5.15,0.04,-0.19,-0.16,-21.89,0.37,-16.5014508.00,-8.62,-0.51,-5.15,0.04,-0.19,-0.16,-21.89,0.37,-16.5014520.00,-8.86,-1.08,-4.58,0.08,-0.22,-0.03,-21.89,0.37,-16.5014532.00,-8.86,-1.08,-4.58,0.08,-0.22,-0.03,-21.89,0.37,-16.5014543.00,-8.66,-1.02,-4.58,0.01,-0.21,0.13,-23.34,0.54,-16.3414556.00,-8.67,-0.22,-5.39,0.02,-0.17,0.14,-23.34,0.54,-16.3414567.00,-8.67,-0.22,-5.39,0.02,-0.17,0.14,-23.34,0.54,-16.3414578.00,-8.54,-0.07,-4.81,0.14,-0.21,0.04,-23.34,0.54,-16.3414590.00,-8.54,-0.07,-4.81,0.14,-0.21,0.04,-23.34,0.54,-16.3414604.00,-8.91,-1.04,-3.41,0.36,-0.14,-0.06,-23.34,0.54,-16.3414616.00,-8.99,-0.74,-3.75,0.43,0.04,-0.09,-23.34,0.54,-16.3414628.00,-8.99,-0.74,-3.75,0.43,0.04,-0.09,-23.34,0.54,-16.3414639.00,-9.29,-1.15,-3.02,0.37,0.16,-0.17,-23.34,0.54,-16.3414653.00,-9.29,-1.15,-3.02,0.37,0.16,-0.17,-23.34,0.54,-16.3414665.00,-10.65,0.71,-4.50,0.22,0.27,-0.32,-24.37,1.73,-16.8114676.00,-11.93,-2.31,-1.31,0.21,0.41,-0.67,-24.37,1.73,-16.8114688.00,-11.93,-2.31,-1.31,0.21,0.41,-0.67,-24.37,1.73,-16.8114701.00,-8.17,-1.18,-4.34,-0.32,0.63,-0.53,-24.37,1.73,-16.8114713.00,-9.68,-1.08,-1.83,-0.29,-0.07,-0.52,-24.37,1.73,-16.8114726.00,-9.68,-1.08,-1.83,-0.29,-0.07,-0.52,-24.37,1.73,-16.8114739.00,-7.60,-2.44,-4.05,-0.06,0.10,-0.46,-24.37,1.73,-16.8114750.00,-7.60,-2.44,-4.05,-0.06,0.10,-0.46,-24.37,1.73,-16.8114761.00,-5.31,0.91,-9.18,0.10,0.48,-0.04,-24.37,1.73,-16.8114773.00,-5.31,0.91,-9.18,0.10,0.48,-0.04,-24.37,1.73,-16.8114784.00,-5.15,-0.28,-9.75,1.13,0.37,-0.06,-21.48,-0.99,-17.7514798.00,-7.05,-2.91,-8.80,2.06,0.25,-0.12,-21.48,-0.99,-17.7514810.00,-7.05,-2.91,-8.80,2.06,0.25,-0.12,-21.48,-0.99,-17.7514820.00,-9.25,-4.62,-3.30,1.68,-0.06,-0.06,-21.48,-0.99,-17.7514834.00,-9.28,-4.05,-2.42,0.53,0.06,0.07,-21.48,-0.99,-17.7514846.00,-9.28,-4.05,-2.42,0.53,0.06,0.07,-21.48,-0.99,-17.7514857.00,-8.88,-2.35,-3.84,-0.31,0.13,0.14,-21.48,-0.99,-17.7514869.00,-8.88,-2.35,-3.84,-0.31,0.13,0.14,-21.48,-0.99,-17.7514881.00,-8.11,-1.40,-5.24,-0.63,0.10,0.14,-21.48,-0.99,-17.7514893.00,-8.29,-0.66,-5.78,-0.61,-0.02,0.16,-21.48,-0.99,-17.7514905.00,-8.29,-0.66,-5.78,-0.61,-0.02,0.16,-21.48,-0.99,-17.7514917.00,-8.50,-0.96,-5.29,-0.36,-0.13,0.13,-22.72,-3.38,-17.4414930.00,-8.50,-0.96,-5.29,-0.36,-0.13,0.13,-22.72,-3.38,-17.4414942.00,-8.46,-1.16,-5.31,-0.17,-0.19,0.14,-22.72,-3.38,-17.4414954.00,-11.33,-0.88,-4.87,0.01,-0.29,0.08,-22.72,-3.38,-17.4414966.00,-11.33,-0.88,-4.87,0.01,-0.29,0.08,-22.72,-3.38,-17.4414979.00,-8.82,-2.98,-3.60,0.01,-0.23,-0.13,-22.72,-3.38,-17.4414991.00,-8.82,-2.98,-3.60,0.01,-0.23,-0.13,-22.72,-3.38,-17.4415002.00,-8.88,-1.47,-4.52,-0.30,-0.15,-0.08,-22.72,-3.38,-17.4415014.00,-8.88,-1.09,-4.30,-0.38,-0.19,-0.19,-22.72,-3.38,-17.4415026.00,-8.88,-1.09,-4.30,-0.38,-0.19,-0.19,-22.72,-3.38,-17.4415038.00,-9.25,-0.78,-4.05,-0.51,-0.19,-0.24,-22.72,-2.70,-18.6915050.00,-9.25,-0.78,-4.05,-0.51,-0.19,-0.24,-22.72,-2.70,-18.6915063.00,-8.62,-0.93,-4.99,-0.51,-0.16,-0.21,-22.72,-2.70,-18.6915077.00,-8.32,-1.50,-6.08,-0.24,-0.12,-0.06,-22.72,-2.70,-18.6915089.00,-8.32,-1.50,-6.08,-0.24,-0.12,-0.06,-22.72,-2.70,-18.6915100.00,-8.12,-2.43,-4.54,0.09,-0.11,0.17,-22.72,-2.70,-18.6915112.00,-8.12,-2.43,-4.54,0.09,-0.11,0.17,-22.72,-2.70,-18.6915124.00,-8.76,0.00,-5.45,-0.02,0.06,0.50,-22.72,-2.70,-18.6915136.00,-8.74,-1.97,-4.24,0.01,0.01,0.33,-22.72,-2.70,-18.6915148.00,-8.74,-1.97,-4.24,0.01,0.01,0.33,-22.72,-2.70,-18.6915158.00,-8.68,-1.74,-4.78,-0.21,-0.02,0.18,-21.48,-2.70,-18.0615172.00,-8.68,-1.74,-4.78,-0.21,-0.02,0.18,-21.48,-2.70,-18.0615185.00,-8.98,-0.56,-4.76,-0.46,-0.07,0.07,-21.48,-2.70,-18.0615195.00,-9.18,0.58,-5.08,-0.48,-0.15,-0.20,-21.48,-2.70,-18.0615207.00,-9.18,0.58,-5.08,-0.48,-0.15,-0.20,-21.48,-2.70,-18.0615221.00,-8.39,-2.31,-4.90,-0.26,-0.21,-0.38,-21.48,-2.70,-18.0615232.00,-8.39,-2.31,-4.90,-0.26,-0.21,-0.38,-21.48,-2.70,-18.0615244.00,-8.27,-1.41,-5.25,-0.29,-0.13,-0.18,-21.48,-2.70,-18.0615256.00,-8.74,-2.05,-5.24,-0.05,-0.12,-0.06,-21.48,-2.70,-18.0615269.00,-8.74,-2.05,-5.24,-0.05,-0.12,-0.06,-21.48,-2.70,-18.0615280.00,-8.65,-1.50,-4.51,-0.04,-0.11,0.25,-22.72,-0.65,-15.8715292.00,-8.65,-1.50,-4.51,-0.04,-0.11,0.25,-22.72,-0.65,-15.8715304.00,-8.56,-1.26,-5.13,-0.03,-0.05,0.32,-22.72,-0.65,-15.8715317.00,-8.75,-0.60,-4.82,-0.07,-0.08,0.19,-22.72,-0.65,-15.8715329.00,-8.75,-0.60,-4.82,-0.07,-0.08,0.19,-22.72,-0.65,-15.8715341.00,-8.83,-0.83,-4.73,-0.12,-0.08,0.03,-22.72,-0.65,-15.8715353.00,-8.83,-0.83,-4.73,-0.12,-0.08,0.03,-22.72,-0.65,-15.8715366.00,-9.10,-0.38,-4.72,-0.16,-0.11,-0.08,-22.72,-0.65,-15.8715377.00,-9.09,-0.61,-4.48,-0.13,-0.19,-0.30,-22.72,-0.65,-15.8715389.00,-9.09,-0.61,-4.48,-0.13,-0.19,-0.30,-22.72,-0.65,-15.8715400.00,-8.49,-2.79,-4.30,-0.17,-0.21,-0.40,-22.72,-0.65,-15.8715413.00,-8.10,-1.30,-5.34,-0.29,-0.12,-0.18,-22.72,-0.65,-15.8715425.00,-8.10,-1.30,-5.34,-0.29,-0.12,-0.18,-22.51,-0.82,-17.5915437.00,-8.71,-2.04,-5.01,0.03,-0.05,-0.00,-22.51,-0.82,-17.5915448.00,-8.71,-2.04,-5.01,0.03,-0.05,-0.00,-22.51,-0.82,-17.5915462.00,-9.23,-0.22,-4.99,0.01,-0.01,0.24,-22.51,-0.82,-17.5915473.00,-9.41,-0.41,-4.99,0.04,-0.00,0.16,-22.51,-0.82,-17.5915485.00,-9.41,-0.41,-4.99,0.04,-0.00,0.16,-22.51,-0.82,-17.5915497.00,-13.09,0.08,-2.10,-0.09,-0.05,-0.06,-22.51,-0.82,-17.5915511.00,-13.09,0.08,-2.10,-0.09,-0.05,-0.06,-22.51,-0.82,-17.5915523.00,-7.08,-2.71,-4.53,-0.58,0.30,-0.43,-22.51,-0.82,-17.5915535.00,-8.64,-1.82,-3.12,-0.80,0.01,-0.42,-24.17,0.54,-15.7215547.00,-8.64,-1.82,-3.12,-0.80,0.01,-0.42,-24.17,0.54,-15.7215560.00,-5.94,-1.19,-7.40,-0.62,0.23,-0.36,-24.17,0.54,-15.7215572.00,-5.94,-1.19,-7.40,-0.62,0.23,-0.36,-24.17,0.54,-15.7215584.00,-4.99,-1.98,-6.96,-0.17,-0.02,-0.16,-24.17,0.54,-15.7215597.00,-6.67,-0.57,-7.30,0.24,-0.25,0.18,-24.17,0.54,-15.7215609.00,-6.67,-0.57,-7.30,0.24,-0.25,0.18,-24.17,0.54,-15.7215620.00,-8.77,-2.02,-3.74,0.68,-0.56,0.17,-24.17,0.54,-15.7215632.00,-8.77,-2.02,-3.74,0.68,-0.56,0.17,-24.17,0.54,-15.7215644.00,-14.39,-0.93,-2.27,0.55,-0.46,0.21,-24.17,0.54,-15.7215657.00,-9.11,-1.13,-3.65,0.14,-0.04,0.10,-23.13,-0.31,-16.5015669.00,-9.11,-1.13,-3.65,0.14,-0.04,0.10,-23.13,-0.31,-16.5015681.00,-8.90,-1.02,-4.61,0.10,0.08,0.13,-23.13,-0.31,-16.5015693.00,-8.90,-1.02,-4.61,0.10,0.08,0.13,-23.13,-0.31,-16.5015706.00,-9.29,-0.74,-4.66,0.06,0.07,0.19,-23.13,-0.31,-16.5015718.00,-8.92,-2.61,-3.96,0.03,0.03,0.15,-23.13,-0.31,-16.5015730.00,-8.92,-2.61,-3.96,0.03,0.03,0.15,-23.13,-0.31,-16.5015741.00,-8.95,-1.30,-4.14,-0.33,0.04,0.37,-23.13,-0.31,-16.5015754.00,-8.95,-1.40,-4.57,-0.59,0.00,0.34,-23.13,-0.31,-16.5015766.00,-8.95,-1.40,-4.57,-0.59,0.00,0.34,-23.13,-0.31,-16.5015778.00,-8.91,0.05,-5.24,-0.68,-0.07,0.17,-21.69,0.88,-17.5915789.00,-8.91,0.05,-5.24,-0.68,-0.07,0.17,-21.69,0.88,-17.5915803.00,-8.37,-0.33,-5.81,-0.45,-0.12,-0.19,-21.69,0.88,-17.5915815.00,-8.28,0.11,-5.82,-0.04,-0.11,-0.36,-21.69,0.88,-17.5915826.00,-8.28,0.11,-5.82,-0.04,-0.11,-0.36,-21.69,0.88,-17.5915838.00,-8.18,-0.32,-4.83,0.28,-0.05,-0.32,-21.69,0.88,-17.5915851.00,-8.18,-0.32,-4.83,0.28,-0.05,-0.32,-21.69,0.88,-17.5915863.00,-8.79,-1.40,-4.54,0.33,0.06,-0.28,-21.69,0.88,-17.5915875.00,-9.23,-2.14,-3.54,0.13,0.02,-0.13,-21.69,0.88,-17.5915886.00,-9.23,-2.14,-3.54,0.13,0.02,-0.13,-21.69,0.88,-17.5915899.00,-8.99,-2.14,-3.96,-0.30,0.00,0.04,-23.55,0.37,-16.5015911.00,-8.99,-2.14,-3.96,-0.30,0.00,0.04,-23.55,0.37,-16.5015922.00,-8.61,-3.36,-4.20,-0.78,-0.02,0.32,-23.55,0.37,-16.5015934.00,-8.38,-0.73,-4.53,-1.33,-0.11,0.72,-23.55,0.37,-16.5015947.00,-8.38,-0.73,-4.53,-1.33,-0.11,0.72,-23.55,0.37,-16.5015959.00,-8.81,0.81,-5.52,-1.05,-0.14,0.58,-23.55,0.37,-16.5015971.00,-8.81,0.81,-5.52,-1.05,-0.14,0.58,-23.55,0.37,-16.5015983.00,-8.64,0.68,-5.41,-0.56,-0.20,0.25,-23.55,0.37,-16.5015997.00,-9.12,-0.29,-4.49,-0.14,-0.19,-0.05,-23.55,0.37,-16.5016009.00,-9.12,-0.29,-4.49,-0.14,-0.19,-0.05,-23.55,0.37,-16.5016020.00,-9.24,-0.63,-3.15,-0.07,-0.24,-0.31,-23.55,0.37,-16.5016034.00,-8.52,-0.55,-5.10,-0.21,-0.17,-0.40,-23.13,2.07,-15.5616046.00,-8.52,-0.55,-5.10,-0.21,-0.17,-0.40,-23.13,2.07,-15.5616057.00,-8.16,-1.25,-4.72,-0.23,-0.17,-0.21,-23.13,2.07,-15.5616069.00,-8.16,-1.25,-4.72,-0.23,-0.17,-0.21,-23.13,2.07,-15.5616082.00,-8.75,-2.03,-3.78,-0.18,-0.06,0.13,-23.13,2.07,-15.5616093.00,-8.75,-2.03,-3.78,-0.18,-0.06,0.13,-23.13,2.07,-15.5616105.00,-9.31,0.93,-4.94,-0.16,0.17,0.55,-23.13,2.07,-15.5616117.00,-11.77,1.72,-4.52,0.12,0.18,0.37,-23.13,2.07,-15.5616130.00,-11.77,1.72,-4.52,0.12,0.18,0.37,-23.13,2.07,-15.5616141.00,-11.15,-0.44,-1.55,0.27,0.42,-0.14,-23.13,2.07,-15.5616153.00,-11.15,-0.44,-1.55,0.27,0.42,-0.14,-23.13,2.07,-15.5616164.00,-9.08,-1.78,-2.97,0.18,1.00,-0.35,-22.31,3.43,-17.1216176.00,-8.21,1.72,-2.57,0.11,0.40,-0.38,-22.31,3.43,-17.1216190.00,-8.21,1.72,-2.57,0.11,0.40,-0.38,-22.31,3.43,-17.1216201.00,-9.43,-3.39,-2.61,0.56,-0.17,-0.67,-22.31,3.43,-17.1216213.00,-9.43,-3.39,-2.61,0.56,-0.17,-0.67,-22.31,3.43,-17.1216225.00,-6.46,0.66,-7.56,0.30,0.12,-0.36,-22.31,3.43,-17.1216238.00,-5.19,-1.32,-7.57,0.82,-0.03,-0.28,-22.31,3.43,-17.1216250.00,-5.19,-1.32,-7.57,0.82,-0.03,-0.28,-22.31,3.43,-17.1216260.00,-7.76,-0.23,-7.58,0.71,-0.19,-0.00,-22.31,3.43,-17.1216272.00,-7.76,-0.23,-7.58,0.71,-0.19,-0.00,-22.31,3.43,-17.1216285.00,-7.67,-2.32,-7.63,0.69,0.01,0.00,-21.07,0.37,-16.5016297.00,-7.51,-0.79,-6.38,0.43,0.06,0.16,-21.07,0.37,-16.5016309.00,-7.51,-0.79,-6.38,0.43,0.06,0.16,-21.07,0.37,-16.5016319.00,-8.92,-1.58,-4.84,0.53,-0.05,0.04,-21.07,0.37,-16.5016333.00,-8.92,-1.58,-4.84,0.53,-0.05,0.04,-21.07,0.37,-16.5016345.00,-9.22,-0.82,-4.16,0.47,-0.04,-0.03,-21.07,0.37,-16.5016356.00,-8.54,-1.59,-4.24,0.45,-0.03,-0.11,-21.07,0.37,-16.5016368.00,-8.54,-1.59,-4.24,0.45,-0.03,-0.11,-21.07,0.37,-16.5016381.00,-8.17,-1.59,-4.95,0.34,-0.12,0.01,-21.07,0.37,-16.5016393.00,-8.17,-1.59,-4.95,0.34,-0.12,0.01,-21.07,0.37,-16.5016404.00,-8.69,-1.65,-4.91,0.31,-0.29,0.14,-21.69,-1.85,-17.2816416.00,-9.70,-2.08,-3.58,0.21,-0.30,0.07,-21.69,-1.85,-17.2816430.00,-9.70,-2.08,-3.58,0.21,-0.30,0.07,-21.69,-1.85,-17.2816442.00,-9.18,-1.76,-4.14,-0.02,-0.07,0.05,-21.69,-1.85,-17.2816453.00,-9.18,-1.76,-4.14,-0.02,-0.07,0.05,-21.69,-1.85,-17.2816465.00,-8.91,-1.28,-4.90,-0.14,-0.10,0.06,-21.69,-1.85,-17.2816469.00,-8.91,-1.28,-4.90,-0.14,-0.10,0.06,-21.69,-1.85,-17.2816548.00,-8.75,-0.63,-4.24,0.11,-0.10,-0.13,-21.69,-1.17,-15.4016625.00,-8.48,0.16,-5.62,-0.31,-0.07,0.68,-21.69,-1.17,-15.4016704.00,-9.34,-0.39,-3.65,0.23,-0.07,-0.30,-21.69,0.88,-18.5316792.00,-11.55,-0.39,-2.74,-1.09,0.11,0.02,-22.72,1.39,-16.8116803.00,-7.50,0.10,-6.45,-0.85,0.70,-0.19,-22.72,1.39,-16.8116815.00,-6.01,0.33,-8.72,-0.32,0.57,-0.40,-22.72,1.39,-16.8116827.00,-6.01,0.33,-8.72,-0.32,0.57,-0.40,-22.72,1.39,-16.8116840.00,-6.23,0.13,-7.86,0.49,0.08,-0.57,-22.72,1.39,-16.8116852.00,-6.23,0.13,-7.86,0.49,0.08,-0.57,-22.72,1.39,-16.8116864.00,-6.40,-0.79,-6.24,1.06,-0.32,-0.66,-22.72,1.39,-16.8116876.00,-7.59,-3.19,-4.38,1.18,-0.54,-0.56,-22.72,1.39,-16.8116889.00,-7.59,-3.19,-4.38,1.18,-0.54,-0.56,-22.72,1.39,-16.8116900.00,-13.97,-3.14,-1.49,0.59,-0.68,-0.12,-21.89,-2.02,-15.5616912.00,-13.97,-3.14,-1.49,0.59,-0.68,-0.12,-21.89,-2.02,-15.5616924.00,-9.54,-1.33,-3.13,-0.27,-0.18,0.11,-21.89,-2.02,-15.5616937.00,-9.36,-0.76,-5.30,-0.31,0.01,0.11,-21.89,-2.02,-15.5616949.00,-9.36,-0.76,-5.30,-0.31,0.01,0.11,-21.89,-2.02,-15.5616960.00,-9.35,-1.06,-5.24,-0.28,-0.10,0.09,-21.89,-2.02,-15.5616973.00,-9.35,-1.06,-5.24,-0.28,-0.10,0.09,-21.89,-2.02,-15.5616987.00,-10.78,-1.50,-2.88,-0.38,0.04,0.10,-21.89,-2.02,-15.5616998.00,-7.42,-1.57,-5.06,-0.56,0.42,0.07,-21.89,-2.02,-15.5617009.00,-7.42,-1.57,-5.06,-0.56,0.42,0.07,-21.89,-2.02,-15.5617021.00,-5.90,-1.54,-6.98,-0.44,0.26,0.12,-21.89,-2.02,-15.5617034.00,-5.08,-1.73,-7.84,-0.07,-0.10,0.20,-22.93,-1.17,-16.9717046.00,-5.08,-1.73,-7.84,-0.07,-0.10,0.20,-22.93,-1.17,-16.9717058.00,-6.96,-0.91,-6.70,0.35,-0.59,0.32,-22.93,-1.17,-16.9717071.00,-6.96,-0.91,-6.70,0.35,-0.59,0.32,-22.93,-1.17,-16.9717083.00,-12.59,-0.90,-0.87,0.66,-0.76,0.25,-22.93,-1.17,-16.9717095.00,-9.64,-1.52,-2.38,0.35,-0.08,0.20,-22.93,-1.17,-16.9717106.00,-9.64,-1.52,-2.38,0.35,-0.08,0.20,-22.93,-1.17,-16.9717120.00,-8.88,0.55,-6.11,0.09,0.10,0.24,-22.93,-1.17,-16.9717132.00,-8.88,0.55,-6.11,0.09,0.10,0.24,-22.93,-1.17,-16.9717143.00,-8.14,-1.42,-5.21,0.38,0.04,0.06,-22.93,-1.17,-16.9717154.00,-9.12,-1.45,-3.35,0.32,0.05,0.18,-21.89,-0.31,-16.5017166.00,-9.12,-1.45,-3.35,0.32,0.05,0.18,-21.89,-0.31,-16.5017180.00,-9.22,-2.80,-2.40,0.08,0.06,0.16,-21.89,-0.31,-16.5017192.00,-9.22,-2.80,-2.40,0.08,0.06,0.16,-21.89,-0.31,-16.5017203.00,-9.11,-1.06,-4.33,-0.49,0.15,0.37,-21.89,-0.31,-16.5017215.00,-9.09,0.37,-5.47,-0.85,-0.01,0.30,-21.89,-0.31,-16.5017228.00,-9.09,0.37,-5.47,-0.85,-0.01,0.30,-21.89,-0.31,-16.5017239.00,-8.49,0.39,-5.35,-0.59,-0.18,-0.10,-21.89,-0.31,-16.5017251.00,-8.49,0.39,-5.35,-0.59,-0.18,-0.10,-21.89,-0.31,-16.5017265.00,-7.87,-1.41,-5.48,-0.13,-0.17,-0.34,-21.89,-0.31,-16.5017276.00,-8.48,-0.59,-5.17,0.10,-0.13,-0.23,-22.51,-0.14,-16.3417288.00,-8.48,-0.59,-5.17,0.10,-0.13,-0.23,-22.51,-0.14,-16.3417300.00,-8.73,-1.50,-4.03,0.26,-0.10,-0.14,-22.51,-0.14,-16.3417312.00,-8.73,-1.50,-4.03,0.26,-0.10,-0.14,-22.51,-0.14,-16.3417324.00,-8.75,-2.13,-3.98,0.15,0.03,0.04,-22.51,-0.14,-16.3417336.00,-9.13,-1.14,-4.60,-0.10,0.11,0.26,-22.51,-0.14,-16.3417348.00,-9.13,-1.14,-4.60,-0.10,0.11,0.26,-22.51,-0.14,-16.3417361.00,-9.55,-0.88,-4.63,-0.36,0.04,0.23,-22.51,-0.14,-16.3417373.00,-9.55,-0.88,-4.63,-0.36,0.04,0.23,-22.51,-0.14,-16.3417384.00,-10.06,0.23,-4.46,-0.50,-0.03,0.13,-22.51,-0.14,-16.3417395.00,-8.73,-1.64,-4.06,-0.45,0.10,-0.16,-23.55,0.03,-17.4417409.00,-8.73,-1.64,-4.06,-0.45,0.10,-0.16,-23.55,0.03,-17.4417420.00,-6.63,-0.74,-6.82,-0.50,0.18,-0.19,-23.55,0.03,-17.4417432.00,-6.63,-0.74,-6.82,-0.50,0.18,-0.19,-23.55,0.03,-17.4417444.00,-6.15,-1.35,-7.10,-0.22,-0.14,-0.12,-23.55,0.03,-17.4417458.00,-8.55,-0.83,-5.27,0.06,-0.45,0.05,-23.55,0.03,-17.4417469.00,-8.55,-0.83,-5.27,0.06,-0.45,0.05,-23.55,0.03,-17.4417481.00,-9.29,-1.83,-3.05,0.12,-0.30,0.05,-23.55,0.03,-17.4417493.00,-9.29,-1.83,-3.05,0.12,-0.30,0.05,-23.55,0.03,-17.4417505.00,-8.82,-0.42,-4.95,-0.03,0.03,0.14,-23.55,0.03,-17.4417517.00,-8.47,0.61,-6.03,0.04,0.01,0.11,-23.55,0.03,-17.4417529.00,-8.47,0.61,-6.03,0.04,0.01,0.11,-23.55,0.03,-17.4417541.00,-8.53,-1.03,-4.70,0.21,-0.06,0.03,-21.89,0.37,-16.1917552.00,-8.53,-1.03,-4.70,0.21,-0.06,0.03,-21.89,0.37,-16.1917566.00,-9.48,0.20,-3.54,0.10,-0.04,0.10,-21.89,0.37,-16.1917576.00,-8.78,-2.24,-3.83,-0.02,0.03,0.07,-21.89,0.37,-16.1917588.00,-8.78,-2.24,-3.83,-0.02,0.03,0.07,-21.89,0.37,-16.1917600.00,-8.85,-1.43,-4.36,-0.40,0.07,0.28,-21.89,0.37,-16.1917614.00,-8.85,-1.43,-4.36,-0.40,0.07,0.28,-21.89,0.37,-16.1917626.00,-8.91,-0.35,-4.93,-0.61,-0.01,0.26,-21.89,0.37,-16.1917638.00,-8.66,0.55,-5.25,-0.50,-0.09,0.03,-21.89,0.37,-16.1917650.00,-8.66,0.55,-5.25,-0.50,-0.09,0.03,-21.89,0.37,-16.1917663.00,-8.79,0.33,-5.26,-0.22,-0.07,-0.17,-21.27,1.90,-16.0317674.00,-9.12,0.12,-4.62,0.05,0.04,-0.29,-21.27,1.90,-16.0317686.00,-9.12,0.12,-4.62,0.05,0.04,-0.29,-21.27,1.90,-16.0317698.00,-10.38,-1.67,-3.03,0.09,0.33,-0.33,-21.27,1.90,-16.0317711.00,-10.38,-1.67,-3.03,0.09,0.33,-0.33,-21.27,1.90,-16.0317723.00,-6.57,-0.42,-7.34,-0.22,0.69,-0.15,-21.27,1.90,-16.0317735.00,-5.76,-0.58,-8.04,0.08,0.31,-0.08,-21.27,1.90,-16.0317746.00,-5.76,-0.58,-8.04,0.08,0.31,-0.08,-21.27,1.90,-16.0317759.00,-7.02,-1.16,-6.44,0.45,-0.16,0.03,-21.27,1.90,-16.0317770.00,-7.02,-1.16,-6.44,0.45,-0.16,0.03,-21.27,1.90,-16.0317782.00,-8.05,-1.46,-4.91,0.49,-0.56,0.10,-21.69,0.54,-16.9717794.00,-8.05,-1.46,-4.91,0.49,-0.56,0.10,-21.69,0.54,-16.9717806.00,-12.19,-0.40,-1.86,0.35,-0.66,0.08,-21.69,0.54,-16.9717818.00,-9.49,-1.12,-2.55,0.04,-0.25,-0.00,-21.69,0.54,-16.9717830.00,-9.49,-1.12,-2.55,0.04,-0.25,-0.00,-21.69,0.54,-16.9717842.00,-8.86,-1.05,-4.88,-0.26,-0.11,-0.03,-21.69,0.54,-16.9717855.00,-9.24,-1.33,-4.66,-0.47,-0.23,-0.11,-21.69,0.54,-16.9717867.00,-9.24,-1.33,-4.66,-0.47,-0.23,-0.11,-21.69,0.54,-16.9717878.00,-9.05,0.44,-5.85,-0.73,-0.22,-0.04,-21.69,0.54,-16.9717889.00,-9.05,0.44,-5.85,-0.73,-0.22,-0.04,-21.69,0.54,-16.9717903.00,-8.14,-0.99,-4.46,-0.47,-0.28,-0.13,-23.55,1.39,-17.4417915.00,-8.33,0.47,-6.09,-0.19,-0.18,-0.03,-23.55,1.39,-17.4417927.00,-8.33,0.47,-6.09,-0.19,-0.18,-0.03,-23.55,1.39,-17.4417939.00,-8.25,-2.02,-4.47,0.22,-0.17,-0.00,-23.55,1.39,-17.4417952.00,-8.25,-2.02,-4.47,0.22,-0.17,-0.00,-23.55,1.39,-17.4417963.00,-8.94,-0.67,-4.12,0.23,-0.06,0.18,-23.55,1.39,-17.4417974.00,-8.94,-0.67,-4.12,0.23,-0.06,0.18,-23.55,1.39,-17.4417986.00,-9.69,0.34,-4.50,0.14,0.02,0.14,-23.55,1.39,-17.4417999.00,-11.01,0.01,-4.00,-0.04,-0.04,-0.09,-23.55,1.39,-17.4418010.00,-11.01,0.01,-4.00,-0.04,-0.04,-0.09,-23.55,1.39,-17.4418021.00,-10.45,-0.32,-3.52,-0.36,0.06,-0.45,-23.55,1.39,-17.4418033.00,-10.45,-0.32,-3.52,-0.36,0.06,-0.45,-23.55,1.39,-17.4418047.00,-9.20,-0.81,-2.53,-0.71,0.01,-0.58,-22.10,2.24,-16.6618058.00,-6.63,-1.24,-6.29,-0.77,0.16,-0.50,-22.10,2.24,-16.6618069.00,-6.63,-1.24,-6.29,-0.77,0.16,-0.50,-22.10,2.24,-16.6618081.00,-6.14,-1.47,-6.84,-0.39,0.14,-0.31,-22.10,2.24,-16.6618094.00,-6.14,-1.47,-6.84,-0.39,0.14,-0.31,-22.10,2.24,-16.6618106.00,-4.55,-1.51,-8.65,0.07,0.12,0.05,-22.10,2.24,-16.6618118.00,-9.25,-1.12,-4.24,0.57,-0.32,0.26,-22.10,2.24,-16.6618130.00,-9.25,-1.12,-4.24,0.57,-0.32,0.26,-22.10,2.24,-16.6618143.00,-9.91,-1.22,-2.83,0.50,-0.33,0.18,-22.10,2.24,-16.6618155.00,-8.71,-0.92,-4.98,0.16,-0.21,0.14,-21.89,3.43,-16.1918167.00,-8.71,-0.92,-4.98,0.16,-0.21,0.14,-21.89,3.43,-16.1918178.00,-10.36,0.26,-4.70,0.08,-0.19,0.13,-21.89,3.43,-16.1918192.00,-10.36,0.26,-4.70,0.08,-0.19,0.13,-21.89,3.43,-16.1918204.00,-9.04,-0.28,-4.49,0.20,0.02,0.01,-21.89,3.43,-16.1918216.00,-9.08,-0.81,-4.66,0.40,0.09,-0.01,-21.89,3.43,-16.1918227.00,-9.08,-0.81,-4.66,0.40,0.09,-0.01,-21.89,3.43,-16.1918241.00,-9.29,-0.85,-4.11,0.39,0.08,0.03,-21.89,3.43,-16.1918253.00,-9.29,-0.85,-4.11,0.39,0.08,0.03,-21.89,3.43,-16.1918264.00,-9.05,-2.46,-4.04,0.17,0.13,0.11,-21.89,3.43,-16.1918276.00,-9.25,-2.23,-4.66,-0.27,0.15,0.37,-23.96,1.39,-17.1218290.00,-9.25,-2.23,-4.66,-0.27,0.15,0.37,-23.96,1.39,-17.1218301.00,-9.66,0.53,-5.75,-0.77,0.03,0.55,-23.96,1.39,-17.1218312.00,-9.66,0.53,-5.75,-0.77,0.03,0.55,-23.96,1.39,-17.1218324.00,-9.40,0.50,-4.08,-0.79,-0.20,0.20,-23.96,1.39,-17.1218337.00,-9.10,0.59,-4.28,-0.57,-0.28,-0.36,-23.96,1.39,-17.1218348.00,-9.10,0.59,-4.28,-0.57,-0.28,-0.36,-23.96,1.39,-17.1218360.00,-8.08,-0.66,-5.43,-0.38,-0.25,-0.66,-23.96,1.39,-17.1218372.00,-8.08,-0.66,-5.43,-0.38,-0.25,-0.66,-23.96,1.39,-17.1218385.00,-8.23,0.34,-6.12,-0.18,-0.18,-0.54,-23.96,1.39,-17.1218397.00,-8.50,0.02,-5.88,0.10,-0.10,-0.35,-22.31,2.07,-15.8718409.00,-8.50,0.02,-5.88,0.10,-0.10,-0.35,-22.31,2.07,-15.8718420.00,-8.53,-1.19,-4.50,0.29,-0.12,-0.18,-22.31,2.07,-15.8718433.00,-8.53,-1.19,-4.50,0.29,-0.12,-0.18,-22.31,2.07,-15.8718445.00,-8.21,-2.60,-5.33,0.24,0.02,0.14,-22.31,2.07,-15.8718456.00,-9.32,-1.25,-4.26,-0.04,0.03,0.54,-22.31,2.07,-15.8718468.00,-9.32,-1.25,-4.26,-0.04,0.03,0.54,-22.31,2.07,-15.8718481.00,-9.76,-0.11,-4.08,-0.22,0.03,0.58,-22.31,2.07,-15.8718492.00,-9.76,-0.11,-4.08,-0.22,0.03,0.58,-22.31,2.07,-15.8718504.00,-9.06,-2.55,-3.58,-0.32,-0.01,0.37,-22.31,2.07,-15.8718516.00,-9.39,0.38,-5.20,-0.69,-0.05,0.45,-22.31,2.07,-15.8718529.00,-9.39,0.38,-5.20,-0.69,-0.05,0.45,-22.31,2.07,-15.8718540.00,-8.90,-0.06,-4.87,-0.70,-0.22,0.25,-22.93,3.94,-16.3418551.00,-8.90,-0.06,-4.87,-0.70,-0.22,0.25,-22.93,3.94,-16.3418562.00,-8.83,1.22,-5.32,-0.55,-0.20,0.03,-22.93,3.94,-16.3418576.00,-8.08,0.06,-5.13,-0.14,-0.19,-0.31,-22.93,3.94,-16.3418587.00,-8.08,0.06,-5.13,-0.14,-0.19,-0.31,-22.93,3.94,-16.3418598.00,-8.58,1.36,-6.16,0.12,-0.13,-0.25,-22.93,3.94,-16.3418610.00,-8.58,1.36,-6.16,0.12,-0.13,-0.25,-22.93,3.94,-16.3418622.00,-8.64,-1.56,-3.15,0.40,-0.20,-0.26,-22.93,3.94,-16.3418634.00,-8.64,-1.56,-3.15,0.40,-0.20,-0.26,-22.93,3.94,-16.3418645.00,-8.90,-1.70,-3.67,0.18,-0.03,0.00,-22.93,3.94,-16.3418657.00,-9.17,-0.76,-4.23,-0.20,0.08,0.25,-23.96,4.11,-14.3118671.00,-9.17,-0.76,-4.23,-0.20,0.08,0.25,-23.96,4.11,-14.3118683.00,-9.70,-0.28,-4.20,-0.36,0.03,0.19,-23.96,4.11,-14.3118694.00,-9.70,-0.28,-4.20,-0.36,0.03,0.19,-23.96,4.11,-14.3118706.00,-9.84,3.11,-5.86,-0.39,-0.06,-0.09,-23.96,4.11,-14.3118719.00,-9.57,-0.89,-4.19,0.09,-0.09,-0.67,-23.96,4.11,-14.3118729.00,-9.57,-0.89,-4.19,0.09,-0.09,-0.67,-23.96,4.11,-14.3118741.00,-6.69,-0.10,-6.35,0.25,0.12,-0.60,-23.96,4.11,-14.3118753.00,-6.69,-0.10,-6.35,0.25,0.12,-0.60,-23.96,4.11,-14.3118766.00,-6.22,-1.22,-6.49,0.59,-0.12,-0.54,-23.96,4.11,-14.3118777.00,-7.87,-2.38,-4.63,0.75,-0.44,-0.30,-23.13,2.41,-15.8718790.00,-7.87,-2.38,-4.63,0.75,-0.44,-0.30,-23.13,2.41,-15.8718802.00,-9.96,-1.51,-2.47,0.35,-0.34,-0.03,-23.13,2.41,-15.8718816.00,-9.49,-0.47,-4.05,-0.09,-0.02,0.08,-23.13,2.41,-15.8718828.00,-9.49,-0.47,-4.05,-0.09,-0.02,0.08,-23.13,2.41,-15.8718839.00,-9.15,0.41,-6.30,-0.21,0.01,0.08,-23.13,2.41,-15.8718850.00,-9.15,0.41,-6.30,-0.21,0.01,0.08,-23.13,2.41,-15.8718863.00,-10.28,0.38,-4.51,-0.08,-0.19,0.01,-23.13,2.41,-15.8718874.00,-10.28,0.38,-4.51,-0.08,-0.19,0.01,-23.13,2.41,-15.8718885.00,-7.79,-1.99,-3.64,0.01,-0.12,-0.08,-23.13,2.41,-15.8718897.00,-7.14,-1.70,-5.60,-0.07,-0.13,0.12,-23.13,3.09,-14.3118901.00,-7.14,-1.70,-5.60,-0.07,-0.13,0.12,-23.13,3.09,-14.3118980.00,-9.40,1.51,-4.75,-0.27,-0.04,-0.02,-23.13,3.09,-14.3119057.00,-8.70,-2.19,-3.83,-0.02,-0.10,0.13,-25.41,3.26,-15.0919136.00,-9.42,-0.01,-3.90,-0.33,-0.15,-0.03,-25.41,3.26,-15.0919225.00,-9.25,0.14,-3.82,0.13,0.19,0.54,-25.61,3.43,-14.9419237.00,-14.45,2.08,-1.28,0.19,0.35,0.32,-25.61,3.43,-14.9419249.00,-14.45,2.08,-1.28,0.19,0.35,0.32,-25.61,3.43,-14.9419260.00,-10.48,-1.18,0.21,-0.00,0.91,-0.47,-25.61,3.43,-14.9419272.00,-10.48,-1.18,0.21,-0.00,0.91,-0.47,-25.61,3.43,-14.9419285.00,-8.00,-2.01,-3.42,-0.23,1.42,-0.56,-22.72,3.43,-14.9419297.00,-9.15,1.54,-3.67,-0.01,0.81,-0.42,-22.72,3.43,-14.9419309.00,-9.15,1.54,-3.67,-0.01,0.81,-0.42,-22.72,3.43,-14.9419321.00,-8.56,-2.55,-4.45,0.46,0.38,-0.73,-22.72,3.43,-14.9419334.00,-8.56,-2.55,-4.45,0.46,0.38,-0.73,-22.72,3.43,-14.9419346.00,-6.59,0.64,-8.83,0.58,0.34,-0.57,-22.72,3.43,-14.9419358.00,-5.43,-3.11,-5.34,1.31,-0.45,-0.52,-22.72,3.43,-14.9419369.00,-5.43,-3.11,-5.34,1.31,-0.45,-0.52,-22.72,3.43,-14.9419382.00,-5.97,-1.72,-7.32,1.41,-0.32,0.29,-22.72,3.43,-14.9419393.00,-5.97,-1.72,-7.32,1.41,-0.32,0.29,-22.72,3.43,-14.9419405.00,-7.27,2.82,-9.02,1.30,0.02,0.73,-22.93,0.20,-16.9719417.00,-6.77,-0.89,-6.09,1.84,0.07,0.20,-22.93,0.20,-16.9719431.00,-6.77,-0.89,-6.09,1.84,0.07,0.20,-22.93,0.20,-16.9719442.00,-8.66,-3.13,-4.30,1.66,0.16,0.03,-22.93,0.20,-16.9719453.00,-8.66,-3.13,-4.30,1.66,0.16,0.03,-22.93,0.20,-16.9719464.00,-12.69,-2.70,-3.29,0.89,0.11,0.10,-22.93,0.20,-16.9719477.00,-10.20,-3.00,-1.00,0.14,0.31,-0.04,-22.93,0.20,-16.9719488.00,-10.20,-3.00,-1.00,0.14,0.31,-0.04,-22.93,0.20,-16.9719500.00,-7.11,-1.44,-4.98,-0.61,0.55,0.04,-22.93,0.20,-16.9719512.00,-7.11,-1.44,-4.98,-0.61,0.55,0.04,-22.93,0.20,-16.9719526.00,-8.61,0.01,-6.20,-0.58,0.28,0.10,-21.48,-2.02,-17.4419538.00,-8.22,-1.61,-5.37,-0.09,0.19,0.02,-21.48,-2.02,-17.4419550.00,-8.22,-1.61,-5.37,-0.09,0.19,0.02,-21.48,-2.02,-17.4419562.00,-9.03,-0.69,-5.09,0.05,0.15,0.15,-21.48,-2.02,-17.4419576.00,-9.06,-1.91,-4.47,0.18,0.13,0.04,-21.48,-2.02,-17.4419587.00,-9.06,-1.91,-4.47,0.18,0.13,0.04,-21.48,-2.02,-17.4419598.00,-8.11,-1.94,-5.13,-0.05,0.09,-0.01,-21.48,-2.02,-17.4419610.00,-8.11,-1.94,-5.13,-0.05,0.09,-0.01,-21.48,-2.02,-17.4419623.00,-8.05,-1.70,-5.59,-0.19,-0.05,0.02,-21.48,-2.02,-17.4419635.00,-8.05,-1.70,-5.59,-0.19,-0.05,0.02,-21.48,-2.02,-17.4419647.00,-8.61,-1.50,-5.26,-0.20,-0.12,0.09,-21.48,-2.02,-17.4419658.00,-9.02,-1.21,-4.60,-0.21,-0.09,0.14,-21.69,-1.51,-18.2219671.00,-9.02,-1.21,-4.60,-0.21,-0.09,0.14,-21.69,-1.51,-18.2219683.00,-8.60,-1.04,-4.92,-0.26,-0.03,0.10,-21.69,-1.51,-18.2219695.00,-8.60,-1.04,-4.92,-0.26,-0.03,0.10,-21.69,-1.51,-18.2219707.00,-8.15,-1.05,-5.37,-0.23,-0.04,0.07,-21.69,-1.51,-18.2219720.00,-8.21,-0.94,-5.54,-0.07,-0.12,0.08,-21.69,-1.51,-18.2219732.00,-8.21,-0.94,-5.54,-0.07,-0.12,0.08,-21.69,-1.51,-18.2219743.00,-8.36,-1.33,-5.25,0.10,-0.20,0.07,-21.69,-1.51,-18.2219755.00,-8.34,-1.13,-5.33,0.11,-0.26,0.10,-21.69,-1.51,-18.2219769.00,-8.34,-1.13,-5.33,0.11,-0.26,0.10,-21.69,-1.51,-18.2219781.00,-10.90,-0.97,-4.18,0.13,-0.35,0.09,-20.86,-1.17,-16.9719792.00,-10.90,-0.97,-4.18,0.13,-0.35,0.09,-20.86,-1.17,-16.9719804.00,-8.67,-1.93,-4.16,-0.01,-0.23,-0.04,-20.86,-1.17,-16.9719816.00,-8.77,-1.45,-4.37,-0.26,-0.20,-0.04,-20.86,-1.17,-16.9719828.00,-8.77,-1.45,-4.37,-0.26,-0.20,-0.04,-20.86,-1.17,-16.9719840.00,-8.95,-1.05,-4.53,-0.37,-0.20,-0.11,-20.86,-1.17,-16.9719854.00,-8.95,-1.05,-4.53,-0.37,-0.20,-0.11,-20.86,-1.17,-16.9719866.00,-8.99,-0.93,-4.57,-0.41,-0.18,-0.14,-20.86,-1.17,-16.9719878.00,-9.14,-0.41,-5.10,-0.42,-0.14,-0.17,-20.86,-1.17,-16.9719890.00,-9.14,-0.41,-5.10,-0.42,-0.14,-0.17,-20.86,-1.17,-16.9719903.00,-8.40,-1.21,-5.02,-0.20,-0.16,-0.23,-23.34,1.22,-17.5919914.00,-8.40,-1.21,-5.02,-0.20,-0.16,-0.23,-23.34,1.22,-17.5919926.00,-8.46,-1.04,-5.86,0.07,-0.11,-0.11,-23.34,1.22,-17.5919938.00,-8.21,-2.72,-4.75,0.35,-0.15,0.03,-23.34,1.22,-17.5919950.00,-8.21,-2.72,-4.75,0.35,-0.15,0.03,-23.34,1.22,-17.5919962.00,-8.36,-1.37,-4.90,0.25,-0.09,0.24,-23.34,1.22,-17.5919974.00,-8.36,-1.37,-4.90,0.25,-0.09,0.24,-23.34,1.22,-17.5919987.00,-8.78,-1.34,-4.24,0.17,-0.05,0.20,-23.34,1.22,-17.5920000.00,-8.75,-1.41,-4.42,-0.07,-0.03,0.09,-23.34,1.22,-17.5920011.00,-8.75,-1.41,-4.42,-0.07,-0.03,0.09,-23.34,1.22,-17.5920023.00,-8.96,-0.29,-5.01,-0.28,-0.03,0.02,-21.27,-0.48,-16.6620034.00,-8.96,-0.29,-5.01,-0.28,-0.03,0.02,-21.27,-0.48,-16.6620047.00,-9.00,-0.96,-4.54,-0.24,-0.11,-0.19,-21.27,-0.48,-16.6620059.00,-8.95,-0.97,-4.21,-0.33,-0.14,-0.29,-21.27,-0.48,-16.6620071.00,-8.95,-0.97,-4.21,-0.33,-0.14,-0.29,-21.27,-0.48,-16.6620082.00,-8.25,-1.65,-4.93,-0.31,-0.16,-0.29,-21.27,-0.48,-16.6620095.00,-8.25,-1.65,-4.93,-0.31,-0.16,-0.29,-21.27,-0.48,-16.6620107.00,-8.41,-0.88,-5.61,-0.06,-0.11,-0.09,-21.27,-0.48,-16.6620118.00,-7.93,-3.04,-4.53,0.20,-0.12,0.10,-21.27,-0.48,-16.6620130.00,-7.93,-3.04,-4.53,0.20,-0.12,0.10,-21.27,-0.48,-16.6620143.00,-8.95,-0.13,-5.15,0.07,-0.03,0.39,-21.27,-0.48,-16.6620154.00,-8.95,-0.13,-5.15,0.07,-0.03,0.39,-21.27,-0.48,-16.6620165.00,-8.84,-1.79,-3.85,0.09,-0.07,0.18,-22.72,0.71,-17.4420176.00,-9.00,-0.72,-4.76,-0.23,-0.06,0.10,-22.72,0.71,-17.4420189.00,-9.00,-0.72,-4.76,-0.23,-0.06,0.10,-22.72,0.71,-17.4420201.00,-9.30,0.43,-4.82,-0.34,-0.18,-0.16,-22.72,0.71,-17.4420212.00,-9.30,0.43,-4.82,-0.34,-0.18,-0.16,-22.72,0.71,-17.4420224.00,-8.62,-1.17,-3.53,-0.15,-0.27,-0.43,-22.72,0.71,-17.4420237.00,-8.37,-1.46,-4.92,-0.07,-0.16,-0.32,-22.72,0.71,-17.4420248.00,-8.37,-1.46,-4.92,-0.07,-0.16,-0.32,-22.72,0.71,-17.4420260.00,-8.46,-1.87,-4.92,0.07,-0.07,-0.08,-22.72,0.71,-17.4420272.00,-8.46,-1.87,-4.92,0.07,-0.07,-0.08,-22.72,0.71,-17.4420285.00,-8.97,-1.02,-4.21,0.10,0.04,0.31,-23.34,-1.17,-16.3420296.00,-8.96,-0.94,-4.57,0.03,0.14,0.36,-23.34,-1.17,-16.3420307.00,-8.96,-0.94,-4.57,0.03,0.14,0.36,-23.34,-1.17,-16.3420318.00,-9.39,-0.78,-4.13,-0.02,0.06,0.16,-23.34,-1.17,-16.3420332.00,-9.39,-0.78,-4.13,-0.02,0.06,0.16,-23.34,-1.17,-16.3420344.00,-10.17,-0.96,-3.10,-0.13,0.15,-0.07,-23.34,-1.17,-16.3420355.00,-10.17,-0.96,-3.10,-0.13,0.15,-0.07,-23.34,-1.17,-16.3420367.00,-7.58,-1.64,-5.02,-0.38,0.26,-0.23,-23.34,-1.17,-16.3420381.00,-6.69,-1.16,-6.92,-0.42,0.01,-0.14,-23.34,-1.17,-16.3420391.00,-6.69,-1.16,-6.92,-0.42,0.01,-0.14,-23.34,-1.17,-16.3420403.00,-6.97,-1.28,-7.06,-0.16,-0.31,-0.03,-22.51,-1.17,-15.7220415.00,-6.97,-1.28,-7.06,-0.16,-0.31,-0.03,-22.51,-1.17,-15.7220428.00,-10.24,-0.82,-3.34,0.07,-0.48,0.01,-22.51,-1.17,-15.7220439.00,-9.13,-1.34,-4.43,0.10,-0.12,-0.01,-22.51,-1.17,-15.7220451.00,-9.13,-1.34,-4.43,0.10,-0.12,-0.01,-22.51,-1.17,-15.7220463.00,-8.71,-0.20,-5.40,0.13,-0.04,0.06,-22.51,-1.17,-15.7220477.00,-8.64,-1.41,-4.93,0.33,-0.04,0.02,-22.51,-1.17,-15.7220489.00,-8.64,-1.41,-4.93,0.33,-0.04,0.02,-22.51,-1.17,-15.7220501.00,-9.19,-1.13,-3.99,0.18,-0.02,0.15,-22.51,-1.17,-15.7220512.00,-9.19,-1.13,-3.99,0.18,-0.02,0.15,-22.51,-1.17,-15.7220525.00,-8.86,-2.57,-3.70,0.02,0.02,0.11,-21.27,0.20,-16.6620537.00,-8.98,-1.42,-4.51,-0.23,0.07,0.23,-21.27,0.20,-16.6620549.00,-8.98,-1.42,-4.51,-0.23,0.07,0.23,-21.27,0.20,-16.6620560.00,-9.05,-0.85,-5.26,-0.43,-0.01,0.25,-21.27,0.20,-16.6620573.00,-9.05,-0.85,-5.26,-0.43,-0.01,0.25,-21.27,0.20,-16.6620585.00,-9.13,0.87,-5.56,-0.46,-0.16,0.11,-21.27,0.20,-16.6620595.00,-9.13,0.87,-5.56,-0.46,-0.16,0.11,-21.27,0.20,-16.6620607.00,-8.06,-2.29,-4.36,-0.05,-0.29,-0.33,-21.27,0.20,-16.6620620.00,-8.52,-0.00,-5.54,-0.02,-0.15,-0.22,-21.27,0.20,-16.6620632.00,-8.52,-0.00,-5.54,-0.02,-0.15,-0.22,-21.27,0.20,-16.6620644.00,-8.73,-1.31,-3.87,0.07,-0.13,-0.17,-21.27,0.20,-16.6620655.00,-8.73,-1.31,-3.87,0.07,-0.13,-0.17,-21.27,0.20,-16.6620660.00,-8.70,-2.38,-4.13,-0.09,-0.02,-0.01,-22.10,0.20,-16.0320736.00,-9.48,0.01,-4.48,-0.19,-0.12,-0.06,-22.10,0.20,-16.0320814.00,-8.64,-0.95,-4.78,-0.07,-0.17,-0.15,-22.31,1.39,-16.5020892.00,-9.62,-0.83,-3.16,-0.14,0.16,-0.03,-22.31,1.39,-16.5020982.00,-11.89,-0.24,-4.19,0.22,-0.65,0.08,-22.51,2.92,-16.3420994.00,-11.89,-0.24,-4.19,0.22,-0.65,0.08,-22.51,2.92,-16.3421005.00,-9.49,-1.71,-2.26,0.36,-0.35,-0.04,-22.51,2.92,-16.3421016.00,-8.97,-0.11,-4.89,0.17,-0.04,0.08,-24.37,1.73,-14.3121030.00,-8.97,-0.11,-4.89,0.17,-0.04,0.08,-24.37,1.73,-14.3121042.00,-8.76,-1.01,-4.57,0.11,-0.03,0.12,-24.37,1.73,-14.3121053.00,-8.76,-1.01,-4.57,0.11,-0.03,0.12,-24.37,1.73,-14.3121065.00,-9.54,-0.24,-3.91,-0.14,-0.04,0.32,-24.37,1.73,-14.3121078.00,-9.07,-1.11,-4.68,-0.40,-0.06,0.42,-24.37,1.73,-14.3121090.00,-9.07,-1.11,-4.68,-0.40,-0.06,0.42,-24.37,1.73,-14.3121102.00,-8.33,-0.47,-5.70,-0.44,-0.15,0.47,-24.37,1.73,-14.3121112.00,-8.33,-0.47,-5.70,-0.44,-0.15,0.47,-24.37,1.73,-14.3121126.00,-8.69,0.35,-5.38,-0.13,-0.19,0.34,-24.37,1.73,-14.3121138.00,-8.79,-0.09,-4.95,0.33,-0.13,0.18,-24.37,1.73,-14.3121149.00,-8.79,-0.09,-4.95,0.33,-0.13,0.18,-24.37,1.73,-14.3121161.00,-9.02,-0.40,-4.73,0.61,-0.06,0.01,-23.75,2.92,-16.0321175.00,-9.02,-0.40,-4.73,0.61,-0.06,0.01,-23.75,2.92,-16.0321187.00,-9.08,-1.33,-3.72,0.71,0.02,-0.22,-23.75,2.92,-16.0321198.00,-9.67,-0.55,-3.57,0.49,0.05,-0.35,-23.75,2.92,-16.0321210.00,-9.67,-0.55,-3.57,0.49,0.05,-0.35,-23.75,2.92,-16.0321222.00,-9.48,-1.92,-3.04,-0.04,-0.03,-0.37,-23.75,2.92,-16.0321234.00,-9.48,-1.92,-3.04,-0.04,-0.03,-0.37,-23.75,2.92,-16.0321246.00,-9.26,-1.23,-3.65,-0.62,-0.09,-0.20,-23.75,2.92,-16.0321258.00,-9.22,-0.72,-4.95,-0.92,-0.09,-0.12,-23.75,2.92,-16.0321271.00,-9.22,-0.72,-4.95,-0.92,-0.09,-0.12,-23.75,2.92,-16.0321283.00,-8.79,-1.06,-4.50,-1.02,-0.16,-0.12,-21.89,3.09,-15.5621294.00,-8.79,-1.06,-4.50,-1.02,-0.16,-0.12,-21.89,3.09,-15.5621306.00,-8.37,1.78,-6.43,-0.86,-0.14,-0.08,-21.89,3.09,-15.5621319.00,-8.57,0.08,-5.24,-0.29,-0.17,-0.22,-21.89,3.09,-15.5621330.00,-8.57,0.08,-5.24,-0.29,-0.17,-0.22,-21.89,3.09,-15.5621341.00,-8.75,-0.18,-4.68,0.12,-0.13,-0.30,-21.89,3.09,-15.5621352.00,-8.75,-0.18,-4.68,0.12,-0.13,-0.30,-21.89,3.09,-15.5621365.00,-8.71,-0.47,-4.30,0.41,-0.07,-0.37,-21.89,3.09,-15.5621376.00,-8.70,-1.35,-4.53,0.42,0.04,-0.30,-21.89,3.09,-15.5621388.00,-8.70,-1.35,-4.53,0.42,0.04,-0.30,-21.89,3.09,-15.5621400.00,-8.93,-1.27,-4.04,0.23,0.07,-0.09,-25.20,2.07,-14.6221413.00,-8.93,-1.27,-4.04,0.23,0.07,-0.09,-25.20,2.07,-14.6221425.00,-8.79,-1.59,-4.32,0.03,0.12,0.15,-25.20,2.07,-14.6221436.00,-9.05,-0.60,-4.65,-0.27,0.10,0.43,-25.20,2.07,-14.6221448.00,-9.05,-0.60,-4.65,-0.27,0.10,0.43,-25.20,2.07,-14.6221461.00,-9.33,-0.11,-3.95,-0.47,-0.03,0.47,-25.20,2.07,-14.6221472.00,-9.33,-0.11,-3.95,-0.47,-0.03,0.47,-25.20,2.07,-14.6221483.00,-9.39,-1.37,-2.48,-0.60,-0.09,0.40,-25.20,2.07,-14.6221495.00,-9.39,-1.37,-2.48,-0.60,-0.09,0.40,-25.20,2.07,-14.6221509.00,-9.49,-0.66,-3.85,-0.93,-0.03,0.45,-25.20,2.07,-14.6221521.00,-9.20,1.72,-5.66,-1.15,-0.10,0.34,-22.93,5.98,-14.4721533.00,-9.20,1.72,-5.66,-1.15,-0.10,0.34,-22.93,5.98,-14.4721544.00,-8.57,0.22,-5.36,-0.91,-0.15,0.04,-22.93,5.98,-14.4721557.00,-8.95,0.79,-4.31,-0.74,-0.13,-0.13,-22.93,5.98,-14.4721569.00,-8.95,0.79,-4.31,-0.74,-0.13,-0.13,-22.93,5.98,-14.4721581.00,-8.62,1.65,-5.50,-0.62,-0.07,-0.16,-22.93,5.98,-14.4721592.00,-8.62,1.65,-5.50,-0.62,-0.07,-0.16,-22.93,5.98,-14.4721606.00,-8.37,0.08,-5.28,-0.20,-0.09,-0.19,-22.93,5.98,-14.4721617.00,-8.72,-0.43,-4.32,0.06,-0.08,-0.10,-22.93,5.98,-14.4721628.00,-8.72,-0.43,-4.32,0.06,-0.08,-0.10,-22.93,5.98,-14.4721639.00,-8.52,-0.67,-4.76,0.03,-0.03,0.07,-23.13,6.15,-12.4321644.00,-8.52,-0.67,-4.76,0.03,-0.03,0.07,-23.13,6.15,-12.4321722.00,-9.52,0.84,-4.43,-0.08,0.04,0.01,-23.13,6.15,-12.4321800.00,-4.61,2.39,-8.24,-0.06,0.44,-0.55,-22.31,6.15,-14.3121878.00,-6.89,-0.66,-7.76,1.16,0.19,0.09,-22.31,6.15,-14.3121968.00,-10.14,-1.42,-2.59,-0.02,0.22,0.24,-24.17,2.24,-15.4021981.00,-8.30,0.62,-6.21,-0.46,0.41,0.26,-24.17,2.24,-15.4021993.00,-8.30,0.62,-6.21,-0.46,0.41,0.26,-24.17,2.24,-15.4022005.00,-8.04,0.19,-6.47,-0.13,0.18,0.13,-24.17,2.24,-15.4022017.00,-8.80,-1.08,-4.91,0.19,-0.03,0.04,-20.86,2.24,-16.0322029.00,-8.80,-1.08,-4.91,0.19,-0.03,0.04,-20.86,2.24,-16.0322041.00,-9.30,-1.09,-4.10,0.12,-0.02,0.08,-20.86,2.24,-16.0322053.00,-9.30,-1.09,-4.10,0.12,-0.02,0.08,-20.86,2.24,-16.0322063.00,-8.75,-1.04,-4.88,-0.12,0.05,0.05,-20.86,2.24,-16.0322077.00,-8.02,-0.75,-5.73,-0.30,-0.03,0.02,-20.86,2.24,-16.0322089.00,-8.02,-0.75,-5.73,-0.30,-0.03,0.02,-20.86,2.24,-16.0322100.00,-8.63,-0.39,-5.27,-0.26,-0.19,0.02,-20.86,2.24,-16.0322112.00,-8.63,-0.39,-5.27,-0.26,-0.19,0.02,-20.86,2.24,-16.0322126.00,-8.59,-0.81,-5.05,-0.19,-0.29,-0.04,-20.86,2.24,-16.0322138.00,-8.58,-0.74,-5.38,-0.14,-0.42,-0.12,-22.72,1.73,-15.2522149.00,-8.58,-0.74,-5.38,-0.14,-0.42,-0.12,-22.72,1.73,-15.2522163.00,-8.55,-0.49,-5.25,0.03,-0.34,-0.14,-22.72,1.73,-15.2522175.00,-8.55,-0.49,-5.25,0.03,-0.34,-0.14,-22.72,1.73,-15.2522187.00,-8.73,-0.51,-4.92,0.26,-0.25,-0.18,-22.72,1.73,-15.2522198.00,-8.81,-0.30,-4.19,0.41,-0.18,-0.19,-22.72,1.73,-15.2522211.00,-8.81,-0.30,-4.19,0.41,-0.18,-0.19,-22.72,1.73,-15.2522223.00,-8.47,-1.60,-4.14,0.47,-0.04,-0.18,-22.72,1.73,-15.2522235.00,-8.47,-1.60,-4.14,0.47,-0.04,-0.18,-22.72,1.73,-15.2522246.00,-8.86,-1.87,-3.93,0.30,0.07,-0.02,-22.72,1.73,-15.2522259.00,-9.24,-1.48,-3.97,-0.04,0.09,0.15,-22.72,1.73,-15.2522271.00,-9.24,-1.48,-3.97,-0.04,0.09,0.15,-22.72,1.73,-15.2522282.00,-8.94,-1.98,-4.29,-0.31,0.09,0.20,-23.55,-0.31,-15.5622293.00,-8.94,-1.98,-4.29,-0.31,0.09,0.20,-23.55,-0.31,-15.5622305.00,-9.07,-1.77,-4.23,-0.62,0.03,0.30,-23.55,-0.31,-15.5622318.00,-9.28,0.38,-3.49,-0.92,-0.13,0.22,-23.55,-0.31,-15.5622330.00,-9.28,0.38,-3.49,-0.92,-0.13,0.22,-23.55,-0.31,-15.5622342.00,-9.21,-1.01,-3.82,-0.84,-0.19,-0.23,-23.55,-0.31,-15.5622355.00,-9.21,-1.01,-3.82,-0.84,-0.19,-0.23,-23.55,-0.31,-15.5622367.00,-8.37,0.62,-5.93,-0.83,-0.17,-0.43,-23.55,-0.31,-15.5622379.00,-8.04,0.40,-5.93,-0.28,-0.21,-0.58,-23.55,-0.31,-15.5622389.00,-8.04,0.40,-5.93,-0.28,-0.21,-0.58,-23.55,-0.31,-15.5622403.00,-8.22,-0.67,-5.47,0.23,-0.14,-0.55,-21.89,2.07,-15.8722415.00,-8.22,-0.67,-5.47,0.23,-0.14,-0.55,-21.89,2.07,-15.8722427.00,-8.27,-0.45,-4.73,0.36,-0.10,-0.35,-21.89,2.07,-15.8722439.00,-8.43,-2.69,-5.21,0.42,0.06,-0.07,-21.89,2.07,-15.8722452.00,-8.43,-2.69,-5.21,0.42,0.06,-0.07,-21.89,2.07,-15.8722464.00,-9.36,-1.76,-3.80,0.07,0.10,0.37,-21.89,2.07,-15.8722475.00,-9.36,-1.76,-3.80,0.07,0.10,0.37,-21.89,2.07,-15.8722487.00,-9.55,-1.64,-3.12,-0.15,0.02,0.39,-21.89,2.07,-15.8722501.00,-8.87,-2.01,-3.79,-0.47,0.02,0.52,-21.89,2.07,-15.8722513.00,-8.87,-2.01,-3.79,-0.47,0.02,0.52,-21.89,2.07,-15.8722523.00,-8.68,-0.16,-5.78,-0.79,-0.10,0.51,-23.75,2.92,-16.9722535.00,-8.68,-0.16,-5.78,-0.79,-0.10,0.51,-23.75,2.92,-16.9722547.00,-8.83,1.18,-5.65,-0.54,-0.19,0.24,-23.75,2.92,-16.9722559.00,-8.79,0.48,-4.22,-0.19,-0.18,-0.11,-23.75,2.92,-16.9722571.00,-8.79,0.48,-4.22,-0.19,-0.18,-0.11,-23.75,2.92,-16.9722583.00,-8.49,0.52,-5.29,0.01,-0.10,-0.32,-23.75,2.92,-16.9722596.00,-8.49,0.52,-5.29,0.01,-0.10,-0.32,-23.75,2.92,-16.9722610.00,-8.30,-0.28,-5.49,0.30,-0.07,-0.42,-23.75,2.92,-16.9722622.00,-8.68,-1.41,-4.68,0.48,-0.06,-0.36,-23.75,2.92,-16.9722634.00,-8.68,-1.41,-4.68,0.48,-0.06,-0.36,-23.75,2.92,-16.9722645.00,-8.82,-2.45,-4.03,0.36,0.04,-0.07,-23.55,2.41,-15.2522658.00,-8.79,-1.91,-3.68,-0.03,0.08,0.27,-23.55,2.41,-15.2522668.00,-8.79,-1.91,-3.68,-0.03,0.08,0.27,-23.55,2.41,-15.2522680.00,-9.43,0.35,-4.22,-0.42,0.04,0.51,-23.55,2.41,-15.2522692.00,-9.43,0.35,-4.22,-0.42,0.04,0.51,-23.55,2.41,-15.2522705.00,-9.11,-1.57,-4.25,-0.56,-0.08,0.36,-23.55,2.41,-15.2522718.00,-9.30,0.81,-4.12,-0.78,-0.21,0.37,-23.55,2.41,-15.2522730.00,-9.30,0.81,-4.12,-0.78,-0.21,0.37,-23.55,2.41,-15.2522742.00,-8.81,0.66,-5.26,-0.66,-0.28,0.18,-23.55,2.41,-15.2522755.00,-8.81,0.66,-5.26,-0.66,-0.28,0.18,-23.55,2.41,-15.2522767.00,-8.57,0.38,-5.66,-0.33,-0.29,0.05,-23.55,2.41,-15.2522779.00,-8.41,0.47,-5.10,-0.07,-0.29,-0.05,-23.34,4.96,-14.4722791.00,-8.41,0.47,-5.10,-0.07,-0.29,-0.05,-23.34,4.96,-14.4722803.00,-8.69,0.97,-5.51,0.21,-0.21,-0.17,-23.34,4.96,-14.4722815.00,-8.69,0.97,-5.51,0.21,-0.21,-0.17,-23.34,4.96,-14.4722827.00,-8.22,-0.99,-4.15,0.52,-0.20,-0.27,-23.34,4.96,-14.4722839.00,-9.01,-0.82,-4.91,0.62,0.05,-0.03,-23.34,4.96,-14.4722852.00,-9.01,-0.82,-4.91,0.62,0.05,-0.03,-23.34,4.96,-14.4722864.00,-9.63,-1.03,-3.19,0.57,0.04,-0.09,-23.34,4.96,-14.4722876.00,-9.63,-1.03,-3.19,0.57,0.04,-0.09,-23.34,4.96,-14.4722887.00,-9.52,-1.17,-2.53,0.32,0.14,-0.21,-23.34,4.96,-14.4722899.00,-12.22,-0.95,-3.01,0.01,0.26,-0.29,-23.96,3.77,-13.6922911.00,-12.22,-0.95,-3.01,0.01,0.26,-0.29,-23.96,3.77,-13.6922923.00,-10.00,-0.99,-3.30,-0.29,0.54,-0.30,-23.96,3.77,-13.6922933.00,-10.00,-0.99,-3.30,-0.29,0.54,-0.30,-23.96,3.77,-13.6922947.00,-6.69,-0.99,-5.79,-0.41,0.76,-0.14,-23.96,3.77,-13.6922959.00,-10.29,1.48,-1.24,-0.21,-0.13,-0.06,-23.96,3.77,-13.6922971.00,-10.29,1.48,-1.24,-0.21,-0.13,-0.06,-23.96,3.77,-13.6922982.00,-8.77,-2.62,-3.85,0.21,-0.02,-0.34,-23.96,3.77,-13.6922996.00,-8.77,-2.62,-3.85,0.21,-0.02,-0.34,-23.96,3.77,-13.6923007.00,-7.88,0.51,-5.33,0.19,-0.17,-0.13,-23.96,3.77,-13.6923018.00,-6.13,-2.44,-6.57,0.69,-0.34,-0.24,-25.41,2.58,-15.0923030.00,-6.13,-2.44,-6.57,0.69,-0.34,-0.24,-25.41,2.58,-15.0923044.00,-6.35,-0.91,-8.46,0.97,-0.02,0.10,-25.41,2.58,-15.0923056.00,-6.35,-0.91,-8.46,0.97,-0.02,0.10,-25.41,2.58,-15.0923068.00,-6.92,-0.51,-9.31,1.31,0.33,0.25,-25.41,2.58,-15.0923078.00,-8.46,-0.36,-5.55,1.36,0.29,0.25,-25.41,2.58,-15.0923092.00,-8.46,-0.36,-5.55,1.36,0.29,0.25,-25.41,2.58,-15.0923104.00,-10.70,-2.15,-2.44,1.31,0.28,-0.01,-25.41,2.58,-15.0923115.00,-10.70,-2.15,-2.44,1.31,0.28,-0.01,-25.41,2.58,-15.0923127.00,-9.41,-3.00,-2.85,0.43,0.42,-0.14,-25.41,2.58,-15.0923140.00,-8.05,-0.61,-5.42,-0.51,0.36,-0.01,-20.24,0.03,-17.1223151.00,-8.05,-0.61,-5.42,-0.51,0.36,-0.01,-20.24,0.03,-17.1223163.00,-8.78,-0.04,-5.58,-0.44,0.14,0.00,-20.24,0.03,-17.1223174.00,-8.78,-0.04,-5.58,-0.44,0.14,0.00,-20.24,0.03,-17.1223187.00,-8.68,-0.67,-4.87,-0.11,0.08,-0.04,-20.24,0.03,-17.1223197.00,-8.93,-1.04,-4.45,0.07,-0.01,-0.08,-20.24,0.03,-17.1223209.00,-8.93,-1.04,-4.45,0.07,-0.01,-0.08,-20.24,0.03,-17.1223221.00,-8.46,-1.82,-4.89,0.05,-0.04,-0.11,-20.24,0.03,-17.1223234.00,-8.46,-1.82,-4.89,0.05,-0.04,-0.11,-20.24,0.03,-17.1223245.00,-7.70,-1.82,-5.63,-0.03,-0.10,-0.06,-20.24,0.03,-17.1223255.00,-7.70,-1.82,-5.63,-0.03,-0.10,-0.06,-20.24,0.03,-17.1223267.00,-7.04,-1.18,-6.48,-0.10,-0.34,0.02,-20.24,0.03,-17.1223280.00,-12.32,-0.84,-3.69,0.04,-0.64,-0.01,-21.48,0.03,-17.4423292.00,-12.32,-0.84,-3.69,0.04,-0.64,-0.01,-21.48,0.03,-17.4423303.00,-8.33,-1.42,-4.69,0.00,-0.33,-0.14,-21.48,0.03,-17.4423314.00,-8.33,-1.42,-4.69,0.00,-0.33,-0.14,-21.48,0.03,-17.4423328.00,-8.33,-0.46,-4.50,0.23,-0.24,-0.16,-21.48,0.03,-17.4423339.00,-9.12,-1.32,-4.54,0.79,-0.08,-0.23,-21.48,0.03,-17.4423349.00,-9.12,-1.32,-4.54,0.79,-0.08,-0.23,-21.48,0.03,-17.4423361.00,-8.72,-3.51,-2.92,0.81,-0.01,-0.08,-21.48,0.03,-17.4423374.00,-8.72,-3.51,-2.92,0.81,-0.01,-0.08,-21.48,0.03,-17.4423385.00,-9.19,-0.63,-4.07,0.15,0.10,0.22,-21.48,0.03,-17.4423396.00,-9.19,-0.63,-4.07,0.15,0.10,0.22,-21.48,0.03,-17.4423408.00,-9.05,-2.38,-3.68,-0.08,0.07,0.25,-21.69,-1.85,-17.5923412.00,-9.05,-2.38,-3.68,-0.08,0.07,0.25,-21.69,-1.85,-17.5923492.00,-6.85,-1.53,-6.12,-0.28,0.05,-0.46,-21.69,-1.85,-17.5923568.00,-8.87,-1.48,-3.70,0.28,-0.08,0.01,-23.75,-0.14,-16.9723647.00,-8.97,-2.03,-4.46,-0.26,0.13,0.23,-22.51,-0.48,-15.7223736.00,-8.04,-0.88,-6.56,-0.12,-0.19,-0.34,-22.51,-0.48,-15.7223748.00,-8.48,-0.34,-5.10,0.27,-0.20,-0.30,-22.51,-0.48,-15.7223760.00,-8.95,-1.93,-3.90,0.54,-0.11,-0.26,-22.51,-0.48,-15.7223772.00,-8.95,-1.93,-3.90,0.54,-0.11,-0.26,-22.51,-0.48,-15.7223785.00,-8.99,-2.97,-2.89,0.34,-0.05,-0.15,-22.72,-1.34,-16.8123797.00,-8.61,-4.27,-3.55,-0.24,0.04,0.19,-22.72,-1.34,-16.8123809.00,-8.61,-4.27,-3.55,-0.24,0.04,0.19,-22.72,-1.34,-16.8123820.00,-9.18,-0.11,-5.86,-1.01,0.00,0.46,-22.72,-1.34,-16.8123833.00,-9.18,-0.11,-5.86,-1.01,0.00,0.46,-22.72,-1.34,-16.8123845.00,-8.67,-1.49,-4.00,-0.96,-0.20,0.25,-22.72,-1.34,-16.8123857.00,-8.67,-1.49,-4.00,-0.96,-0.20,0.25,-22.72,-1.34,-16.8123868.00,-8.32,1.24,-5.88,-0.91,-0.16,0.25,-22.72,-1.34,-16.8123882.00,-8.40,-0.40,-5.90,-0.28,-0.14,0.08,-22.72,-1.34,-16.8123893.00,-8.40,-0.40,-5.90,-0.28,-0.14,0.08,-22.72,-1.34,-16.8123904.00,-8.45,-1.45,-4.16,0.01,-0.13,0.10,-23.13,2.07,-16.5023915.00,-8.45,-1.45,-4.16,0.01,-0.13,0.10,-23.13,2.07,-16.5023930.00,-9.17,0.83,-4.85,0.08,0.02,0.20,-23.13,2.07,-16.5023941.00,-9.00,-1.60,-3.73,0.24,0.09,0.00,-23.13,2.07,-16.5023952.00,-9.00,-1.60,-3.73,0.24,0.09,0.00,-23.13,2.07,-16.5023964.00,-9.73,-0.33,-4.36,0.01,0.14,-0.01,-23.13,2.07,-16.5023978.00,-10.07,-1.36,-3.46,-0.17,0.16,-0.26,-23.13,2.07,-16.5023990.00,-10.07,-1.36,-3.46,-0.17,0.16,-0.26,-23.13,2.07,-16.5024000.00,-7.20,-1.06,-6.17,-0.47,0.30,-0.35,-23.13,2.07,-16.5024012.00,-7.20,-1.06,-6.17,-0.47,0.30,-0.35,-23.13,2.07,-16.5024026.00,-6.53,-0.81,-7.31,-0.41,-0.02,-0.30,-21.27,0.54,-15.7224037.00,-6.17,-1.13,-7.14,-0.07,-0.36,-0.14,-21.27,0.54,-15.7224049.00,-6.17,-1.13,-7.14,-0.07,-0.36,-0.14,-21.27,0.54,-15.7224061.00,-11.45,-0.61,-2.60,0.15,-0.63,0.06,-21.27,0.54,-15.7224075.00,-11.45,-0.61,-2.60,0.15,-0.63,0.06,-21.27,0.54,-15.7224087.00,-9.37,-1.47,-3.06,0.08,-0.19,0.09,-21.27,0.54,-15.7224099.00,-8.67,-0.54,-5.45,0.01,-0.03,0.18,-21.27,0.54,-15.7224110.00,-8.67,-0.54,-5.45,0.01,-0.03,0.18,-21.27,0.54,-15.7224123.00,-8.56,-1.28,-4.87,0.11,-0.09,0.20,-21.27,0.54,-15.7224135.00,-8.56,-1.28,-4.87,0.11,-0.09,0.20,-21.27,0.54,-15.7224147.00,-9.38,0.71,-4.03,-0.04,-0.11,0.28,-23.13,1.39,-15.8724158.00,-8.86,-2.14,-3.67,-0.11,-0.07,0.19,-23.13,1.39,-15.8724171.00,-8.86,-2.14,-3.67,-0.11,-0.07,0.19,-23.13,1.39,-15.8724183.00,-8.76,-1.02,-4.65,-0.45,-0.04,0.27,-23.13,1.39,-15.8724194.00,-8.76,-1.02,-4.65,-0.45,-0.04,0.27,-23.13,1.39,-15.8724205.00,-9.00,-0.95,-4.98,-0.47,-0.05,0.17,-23.13,1.39,-15.8724220.00,-9.04,0.37,-4.42,-0.52,-0.12,0.01,-23.13,1.39,-15.8724230.00,-9.04,0.37,-4.42,-0.52,-0.12,0.01,-23.13,1.39,-15.8724242.00,-8.21,0.88,-6.89,-0.25,-0.10,-0.31,-23.13,1.39,-15.8724254.00,-8.21,0.88,-6.89,-0.25,-0.10,-0.31,-23.13,1.39,-15.8724267.00,-8.02,-0.05,-5.55,0.27,-0.15,-0.52,-23.13,1.39,-15.8724279.00,-8.49,-0.96,-5.10,0.58,-0.11,-0.52,-23.75,3.60,-16.0324291.00,-8.49,-0.96,-5.10,0.58,-0.11,-0.52,-23.75,3.60,-16.0324302.00,-9.29,-1.63,-3.57,0.60,-0.12,-0.29,-23.75,3.60,-16.0324316.00,-9.29,-1.63,-3.57,0.60,-0.12,-0.29,-23.75,3.60,-16.0324328.00,-9.29,-2.62,-3.25,0.25,-0.01,0.01,-23.75,3.60,-16.0324339.00,-8.97,-2.85,-2.89,-0.42,0.09,0.41,-23.75,3.60,-16.0324351.00,-8.97,-2.85,-2.89,-0.42,0.09,0.41,-23.75,3.60,-16.0324355.00,-8.97,-2.85,-2.89,-0.42,0.09,0.41,-23.75,3.60,-16.0324435.00,-8.20,-0.46,-5.16,-0.14,0.63,-0.60,-24.79,4.11,-16.1924512.00,-13.08,-1.15,-1.68,0.39,-0.79,0.06,-24.79,4.11,-16.1924591.00,-8.84,-1.55,-3.35,-0.01,-0.29,0.38,-24.79,0.37,-14.6224680.00,-10.87,-0.57,-2.82,0.06,-0.02,-0.28,-25.82,3.26,-15.7224690.00,-10.87,-0.57,-2.82,0.06,-0.02,-0.28,-25.82,3.26,-15.7224702.00,-9.68,-0.74,-3.39,-0.01,0.46,-0.41,-25.82,3.26,-15.7224714.00,-9.68,-0.74,-3.39,-0.01,0.46,-0.41,-25.82,3.26,-15.7224727.00,-6.66,-0.96,-6.32,-0.04,0.76,-0.42,-25.82,3.26,-15.7224738.00,-6.31,-0.96,-7.47,0.11,0.43,-0.30,-25.82,3.26,-15.7224749.00,-6.31,-0.96,-7.47,0.11,0.43,-0.30,-25.82,3.26,-15.7224761.00,-7.57,-1.23,-5.79,0.27,-0.01,-0.21,-23.34,1.90,-16.0324774.00,-7.57,-1.23,-5.79,0.27,-0.01,-0.21,-23.34,1.90,-16.0324785.00,-7.68,-2.05,-5.41,0.26,-0.24,-0.13,-23.34,1.90,-16.0324796.00,-7.68,-2.05,-5.41,0.26,-0.24,-0.13,-23.34,1.90,-16.0324808.00,-7.42,-0.80,-6.35,0.09,-0.51,0.15,-23.34,1.90,-16.0324821.00,-14.17,-0.24,-1.65,0.08,-0.93,0.20,-23.34,1.90,-16.0324832.00,-14.17,-0.24,-1.65,0.08,-0.93,0.20,-23.34,1.90,-16.0324843.00,-9.85,-2.79,-0.53,-0.17,-0.50,0.02,-23.34,1.90,-16.0324854.00,-9.85,-2.79,-0.53,-0.17,-0.50,0.02,-23.34,1.90,-16.0324867.00,-9.56,0.06,-5.58,-0.55,-0.10,0.17,-23.34,1.90,-16.0324879.00,-9.06,-0.05,-4.14,-0.27,-0.18,0.03,-23.34,1.90,-16.0324891.00,-9.06,-0.05,-4.14,-0.27,-0.18,0.03,-23.34,1.90,-16.0324902.00,-9.05,0.28,-4.57,0.06,-0.03,-0.08,-24.58,1.90,-15.4024916.00,-9.05,0.28,-4.57,0.06,-0.03,-0.08,-24.58,1.90,-15.4024928.00,-11.92,-1.46,-1.15,0.25,0.28,-0.21,-24.58,1.90,-15.4024939.00,-7.50,-1.88,-4.59,-0.15,0.93,-0.33,-24.58,1.90,-15.4024951.00,-7.50,-1.88,-4.59,-0.15,0.93,-0.33,-24.58,1.90,-15.4024964.00,-5.94,-0.34,-7.62,-0.34,0.60,-0.33,-24.58,1.90,-15.4024975.00,-5.94,-0.34,-7.62,-0.34,0.60,-0.33,-24.58,1.90,-15.4024987.00,-5.67,-0.94,-8.54,-0.05,0.02,-0.32,-24.58,1.90,-15.4024998.00,-7.22,-1.43,-6.00,0.28,-0.48,-0.12,-24.58,1.90,-15.4025014.00,-7.22,-1.43,-6.00,0.28,-0.48,-0.12,-24.58,1.90,-15.4025025.00,-9.71,-1.41,-3.58,0.33,-0.72,0.17,-24.37,-0.99,-14.9425036.00,-9.71,-1.41,-3.58,0.33,-0.72,0.17,-24.37,-0.99,-14.9425047.00,-10.68,-0.31,-2.91,0.03,-0.48,0.29,-24.37,-0.99,-14.9425061.00,-8.87,-1.54,-4.60,-0.16,-0.14,0.32,-24.37,-0.99,-14.9425073.00,-8.87,-1.54,-4.60,-0.16,-0.14,0.32,-24.37,-0.99,-14.9425084.00,-8.88,-0.52,-5.36,-0.16,-0.12,0.53,-24.37,-0.99,-14.9425095.00,-8.88,-0.52,-5.36,-0.16,-0.12,0.53,-24.37,-0.99,-14.9425109.00,-9.25,-0.43,-3.78,0.03,-0.12,0.49,-24.37,-0.99,-14.9425121.00,-9.13,-0.64,-4.34,-0.00,-0.03,0.38,-24.37,-0.99,-14.9425132.00,-9.13,-0.64,-4.34,-0.00,-0.03,0.38,-24.37,-0.99,-14.9425144.00,-8.87,-1.25,-5.05,-0.08,-0.12,0.09,-25.20,2.75,-15.8725158.00,-9.18,0.18,-4.51,-0.26,-0.30,-0.18,-25.20,2.75,-15.8725170.00,-9.18,0.18,-4.51,-0.26,-0.30,-0.18,-25.20,2.75,-15.8725181.00,-9.36,-0.49,-3.19,-0.17,-0.33,-0.44,-25.20,2.75,-15.8725192.00,-9.36,-0.49,-3.19,-0.17,-0.33,-0.44,-25.20,2.75,-15.8725206.00,-9.19,-1.74,-3.17,-0.18,-0.23,-0.44,-25.20,2.75,-15.8725218.00,-9.30,0.27,-3.68,-0.30,-0.17,-0.30,-25.20,2.75,-15.8725229.00,-9.30,0.27,-3.68,-0.30,-0.17,-0.30,-25.20,2.75,-15.8725241.00,-9.10,-1.43,-3.75,-0.07,-0.02,-0.29,-25.20,2.75,-15.8725254.00,-9.10,-1.43,-3.75,-0.07,-0.02,-0.29,-25.20,2.75,-15.8725265.00,-11.10,-0.35,-3.35,-0.13,0.30,-0.08,-25.41,2.24,-15.4025277.00,-11.10,-0.35,-3.35,-0.13,0.30,-0.08,-25.41,2.24,-15.4025289.00,-7.49,-0.99,-4.90,-0.21,0.63,-0.09,-25.41,2.24,-15.4025302.00,-6.28,-1.11,-7.27,-0.09,0.50,-0.00,-25.41,2.24,-15.4025314.00,-6.28,-1.11,-7.27,-0.09,0.50,-0.00,-25.41,2.24,-15.4025325.00,-6.10,-1.91,-6.91,0.17,0.07,0.16,-25.41,2.24,-15.4025336.00,-6.10,-1.91,-6.91,0.17,0.07,0.16,-25.41,2.24,-15.4025350.00,-7.62,-0.82,-5.91,0.28,-0.39,0.40,-25.41,2.24,-15.4025362.00,-9.87,-1.03,-3.77,0.33,-0.71,0.43,-25.41,2.24,-15.4025373.00,-9.87,-1.03,-3.77,0.33,-0.71,0.43,-25.41,2.24,-15.4025385.00,-9.81,-0.99,-2.28,0.05,-0.49,0.21,-25.41,2.24,-15.4025397.00,-9.81,-0.99,-2.28,0.05,-0.49,0.21,-25.41,2.24,-15.4025409.00,-9.23,-1.03,-4.07,-0.23,-0.18,0.14,-24.99,1.90,-14.7825421.00,-9.19,-0.56,-4.07,-0.31,-0.16,0.14,-24.99,1.90,-14.7825433.00,-9.19,-0.56,-4.07,-0.31,-0.16,0.14,-24.99,1.90,-14.7825447.00,-9.35,0.08,-4.08,-0.29,-0.12,0.05,-24.99,1.90,-14.7825459.00,-8.74,0.62,-5.23,-0.11,-0.09,-0.20,-24.99,1.90,-14.7825470.00,-8.74,0.62,-5.23,-0.11,-0.09,-0.20,-24.99,1.90,-14.7825480.00,-8.48,0.47,-5.68,0.27,-0.08,-0.35,-24.99,1.90,-14.7825494.00,-8.48,0.47,-5.68,0.27,-0.08,-0.35,-24.99,1.90,-14.7825506.00,-8.82,-1.22,-3.97,0.59,-0.07,-0.38,-24.99,1.90,-14.7825518.00,-8.82,-1.22,-3.97,0.59,-0.07,-0.38,-24.99,1.90,-14.7825529.00,-8.30,-1.81,-4.30,0.53,0.07,-0.19,-25.61,1.39,-15.2525542.00,-9.15,-1.88,-3.83,0.19,0.14,0.18,-25.61,1.39,-15.2525554.00,-9.15,-1.88,-3.83,0.19,0.14,0.18,-25.61,1.39,-15.2525566.00,-9.58,-1.13,-3.44,-0.35,0.08,0.47,-25.61,1.39,-15.2525577.00,-9.58,-1.13,-3.44,-0.35,0.08,0.47,-25.61,1.39,-15.2525591.00,-9.16,-1.66,-3.91,-0.69,0.03,0.48,-25.61,1.39,-15.2525603.00,-9.29,0.41,-4.73,-0.88,-0.07,0.47,-25.61,1.39,-15.2525613.00,-9.29,0.41,-4.73,-0.88,-0.07,0.47,-25.61,1.39,-15.2525625.00,-9.25,0.28,-4.20,-0.79,-0.18,0.24,-25.61,1.39,-15.2525639.00,-9.02,1.39,-5.41,-0.64,-0.27,0.01,-24.79,4.45,-15.8725650.00,-9.02,1.39,-5.41,-0.64,-0.27,0.01,-24.79,4.45,-15.8725661.00,-8.54,0.03,-5.00,-0.24,-0.32,-0.18,-24.79,4.45,-15.8725673.00,-8.54,0.03,-5.00,-0.24,-0.32,-0.18,-24.79,4.45,-15.8725686.00,-8.64,0.31,-5.11,0.10,-0.26,-0.20,-24.79,4.45,-15.8725696.00,-8.64,0.31,-5.11,0.10,-0.26,-0.20,-24.79,4.45,-15.8725708.00,-8.59,-0.05,-4.15,0.40,-0.23,-0.29,-24.79,4.45,-15.8725719.00,-8.40,-1.52,-4.11,0.71,-0.02,-0.27,-24.79,4.45,-15.8725732.00,-8.40,-1.52,-4.11,0.71,-0.02,-0.27,-24.79,4.45,-15.8725744.00,-9.84,0.05,-3.75,0.74,0.12,-0.03,-24.79,4.45,-15.8725756.00,-9.84,0.05,-3.75,0.74,0.12,-0.03,-24.79,4.45,-15.8725768.00,-9.86,-0.96,-2.65,0.54,0.08,-0.11,-23.96,1.73,-14.9425781.00,-12.35,-0.62,-2.79,0.12,0.09,-0.20,-23.96,1.73,-14.9425793.00,-12.35,-0.62,-2.79,0.12,0.09,-0.20,-23.96,1.73,-14.9425805.00,-10.22,-1.14,-2.15,-0.35,0.15,-0.40,-23.96,1.73,-14.9425816.00,-10.22,-1.14,-2.15,-0.35,0.15,-0.40,-23.96,1.73,-14.9425830.00,-10.55,-0.24,0.69,-0.48,-0.12,-0.47,-23.96,1.73,-14.9425842.00,-9.81,-1.95,-1.41,-0.46,-0.00,-0.60,-23.96,1.73,-14.9425853.00,-9.81,-1.95,-1.41,-0.46,-0.00,-0.60,-23.96,1.73,-14.9425864.00,-5.71,0.21,-7.95,-0.54,0.52,-0.42,-23.96,1.73,-14.9425878.00,-5.71,0.21,-7.95,-0.54,0.52,-0.42,-23.96,1.73,-14.9425890.00,-5.11,-1.32,-8.64,0.07,0.54,-0.37,-23.96,1.73,-14.9425901.00,-4.19,-2.97,-10.81,0.65,0.79,-0.12,-23.34,1.90,-15.0925913.00,-4.19,-2.97,-10.81,0.65,0.79,-0.12,-23.34,1.90,-15.0925927.00,-8.23,0.01,-7.09,0.99,0.37,0.27,-23.34,1.90,-15.0925938.00,-8.23,0.01,-7.09,0.99,0.37,0.27,-23.34,1.90,-15.0925949.00,-11.40,-1.51,-2.46,1.12,0.03,0.10,-23.34,1.90,-15.0925961.00,-9.80,-2.57,-1.87,0.54,0.19,0.03,-23.34,1.90,-15.0925974.00,-9.80,-2.57,-1.87,0.54,0.19,0.03,-23.34,1.90,-15.0925985.00,-8.68,-1.27,-4.32,-0.17,0.21,0.16,-23.34,1.90,-15.0925997.00,-8.68,-1.27,-4.32,-0.17,0.21,0.16,-23.34,1.90,-15.0926009.00,-8.60,-0.48,-5.72,-0.34,0.09,0.18,-23.34,1.90,-15.0926021.00,-8.73,-0.97,-5.02,-0.21,-0.06,0.10,-23.13,-0.31,-16.5026034.00,-8.73,-0.97,-5.02,-0.21,-0.06,0.10,-23.13,-0.31,-16.5026046.00,-9.14,-1.31,-4.46,-0.18,-0.11,0.08,-23.13,-0.31,-16.5026058.00,-9.14,-1.31,-4.46,-0.18,-0.11,0.08,-23.13,-0.31,-16.5026071.00,-9.12,-1.12,-4.54,-0.22,-0.04,0.08,-23.13,-0.31,-16.5026083.00,-8.68,-1.06,-5.14,-0.25,0.02,0.05,-23.13,-0.31,-16.5026095.00,-8.68,-1.06,-5.14,-0.25,0.02,0.05,-23.13,-0.31,-16.5026106.00,-8.50,-0.86,-5.40,-0.25,-0.00,0.04,-23.13,-0.31,-16.5026110.00,-8.50,-0.86,-5.40,-0.25,-0.00,0.04,-23.13,-0.31,-16.5026188.00,-8.51,-1.27,-4.78,0.03,0.03,-0.11,-23.96,2.41,-16.1926266.00,-7.28,-1.11,-6.33,0.06,-0.28,0.08,-23.34,0.88,-15.0926344.00,-9.11,-1.53,-3.54,-0.41,-0.17,0.14,-23.34,0.88,-15.0926434.00,-7.96,-0.34,-4.50,0.59,-0.10,-0.36,-23.55,3.43,-14.0026445.00,-8.54,-3.26,-4.12,0.71,0.09,-0.21,-23.55,3.43,-14.0026457.00,-8.54,-3.26,-4.12,0.71,0.09,-0.21,-23.55,3.43,-14.0026469.00,-9.18,-3.22,-3.85,0.15,0.15,0.29,-23.55,3.43,-14.0026482.00,-9.46,-2.22,-2.67,-0.41,0.10,0.54,-23.55,3.43,-14.0026494.00,-9.46,-2.22,-2.67,-0.41,0.10,0.54,-23.55,3.43,-14.0026506.00,-9.34,-0.68,-4.31,-0.88,0.13,0.66,-23.55,3.43,-14.0026518.00,-9.34,-0.68,-4.31,-0.88,0.13,0.66,-23.55,3.43,-14.0026530.00,-9.63,0.60,-3.76,-1.04,-0.03,0.44,-24.58,2.58,-15.0926543.00,-9.35,0.49,-4.10,-0.77,-0.07,-0.13,-24.58,2.58,-15.0926553.00,-9.35,0.49,-4.10,-0.77,-0.07,-0.13,-24.58,2.58,-15.0926565.00,-11.12,-0.34,-3.45,-0.50,0.06,-0.55,-24.58,2.58,-15.0926577.00,-11.12,-0.34,-3.45,-0.50,0.06,-0.55,-24.58,2.58,-15.0926589.00,-7.74,-0.62,-5.27,-0.49,0.46,-0.71,-24.58,2.58,-15.0926601.00,-5.94,-0.40,-7.69,-0.33,0.31,-0.74,-24.58,2.58,-15.0926613.00,-5.94,-0.40,-7.69,-0.33,0.31,-0.74,-24.58,2.58,-15.0926625.00,-5.69,-1.39,-7.52,0.06,-0.20,-0.59,-24.58,2.58,-15.0926637.00,-5.69,-1.39,-7.52,0.06,-0.20,-0.59,-24.58,2.58,-15.0926649.00,-8.00,-2.37,-4.79,0.17,-0.68,-0.24,-24.79,3.77,-14.9426661.00,-10.18,-0.09,-3.14,-0.15,-0.56,0.14,-24.79,3.77,-14.9426674.00,-10.18,-0.09,-3.14,-0.15,-0.56,0.14,-24.79,3.77,-14.9426686.00,-8.73,-0.63,-4.63,-0.17,-0.10,0.24,-24.79,3.77,-14.9426698.00,-8.73,-0.63,-4.63,-0.17,-0.10,0.24,-24.79,3.77,-14.9426710.00,-8.80,-1.00,-5.34,-0.11,-0.01,0.57,-24.79,3.77,-14.9426723.00,-8.83,-2.32,-4.69,-0.05,-0.08,0.79,-24.79,3.77,-14.9426733.00,-8.83,-2.32,-4.69,-0.05,-0.08,0.79,-24.79,3.77,-14.9426745.00,-8.97,-1.03,-3.57,0.01,-0.16,0.67,-24.79,3.77,-14.9426757.00,-8.97,-1.03,-3.57,0.01,-0.16,0.67,-24.79,3.77,-14.9426770.00,-9.67,0.15,-3.11,-0.00,-0.05,0.46,-23.96,3.77,-15.2526781.00,-9.70,-0.17,-3.56,-0.17,0.05,0.25,-23.96,3.77,-15.2526793.00,-9.70,-0.17,-3.56,-0.17,0.05,0.25,-23.96,3.77,-15.2526805.00,-9.62,0.96,-4.00,-0.24,0.07,-0.02,-23.96,3.77,-15.2526817.00,-9.62,0.96,-4.00,-0.24,0.07,-0.02,-23.96,3.77,-15.2526830.00,-9.61,-0.76,-4.57,-0.16,0.22,-0.49,-23.96,3.77,-15.2526842.00,-4.90,-0.35,-7.73,-0.06,0.44,-0.56,-23.96,3.77,-15.2526854.00,-4.90,-0.35,-7.73,-0.06,0.44,-0.56,-23.96,3.77,-15.2526865.00,-5.58,-1.79,-8.01,0.39,-0.09,-0.37,-23.96,3.77,-15.2526878.00,-12.39,-0.45,-1.26,0.44,-0.63,0.05,-23.96,3.77,-15.2526890.00,-12.39,-0.45,-1.26,0.44,-0.63,0.05,-23.96,3.77,-15.2526902.00,-10.31,-1.53,-0.74,0.01,-0.26,0.13,-24.17,4.28,-14.4726912.00,-10.31,-1.53,-0.74,0.01,-0.26,0.13,-24.17,4.28,-14.4726926.00,-10.01,0.62,-4.39,-0.35,-0.08,0.20,-24.17,4.28,-14.4726938.00,-10.01,0.62,-4.39,-0.35,-0.08,0.20,-24.17,4.28,-14.4726949.00,-11.88,0.84,-3.74,-0.14,-0.20,-0.06,-24.17,4.28,-14.4726962.00,-12.05,0.88,-3.01,-0.02,0.18,-0.30,-24.17,4.28,-14.4726973.00,-12.05,0.88,-3.01,-0.02,0.18,-0.30,-24.17,4.28,-14.4726984.00,-8.80,1.00,-3.35,0.24,0.20,-0.47,-24.17,4.28,-14.4726996.00,-8.80,1.00,-3.35,0.24,0.20,-0.47,-24.17,4.28,-14.4727008.00,-9.78,-4.89,0.81,0.36,-0.01,-0.74,-24.17,4.28,-14.4727021.00,-4.13,0.53,-9.73,-0.40,0.89,-0.20,-24.58,2.92,-15.4027032.00,-4.13,0.53,-9.73,-0.40,0.89,-0.20,-24.58,2.92,-15.4027044.00,-3.52,-1.86,-7.77,0.18,0.53,-0.08,-24.58,2.92,-15.4027056.00,-3.52,-1.86,-7.77,0.18,0.53,-0.08,-24.58,2.92,-15.4027068.00,-3.65,-1.81,-9.65,0.83,0.79,0.29,-24.58,2.92,-15.4027080.00,-8.48,0.04,-8.42,1.06,0.37,0.48,-24.58,2.92,-15.4027092.00,-8.48,0.04,-8.42,1.06,0.37,0.48,-24.58,