time,ax,ay,az,gx,gy,gz,mx,my,mz228.00,-0.61,6.23,-7.98,-0.00,0.01,0.00,5.00,-50.00,21.00239.00,-0.59,6.23,-7.98,0.00,0.01,0.01,5.00,-50.00,21.00251.00,-0.61,6.24,-8.02,-0.00,0.01,0.00,5.00,-47.00,17.00263.00,-0.61,6.24,-8.02,-0.00,0.01,0.00,5.00,-47.00,17.00276.00,-0.60,6.23,-7.99,-0.00,0.01,0.00,5.00,-47.00,17.00288.00,-0.60,6.23,-7.99,-0.00,0.01,0.00,5.00,-47.00,17.00299.00,-0.65,6.40,-7.87,-0.01,0.00,-0.00,5.00,-47.00,17.00310.00,-0.65,6.40,-7.87,-0.01,0.00,-0.00,5.00,-47.00,17.00322.00,-0.95,6.54,-7.75,-0.04,0.02,-0.03,5.00,-47.00,17.00335.00,-0.54,6.23,-8.02,-0.06,0.10,-0.12,5.00,-47.00,17.00347.00,-0.54,6.23,-8.02,-0.06,0.10,-0.12,5.00,-47.00,17.00359.00,-1.07,6.31,-7.90,-0.10,0.08,-0.12,5.00,-47.00,17.00370.00,-1.07,6.31,-7.90,-0.10,0.08,-0.12,5.00,-47.00,17.00383.00,-0.46,6.27,-7.99,-0.14,0.10,-0.14,3.00,-50.00,26.00394.00,-0.31,6.31,-7.93,-0.05,0.12,-0.09,3.00,-50.00,26.00405.00,-0.31,6.31,-7.93,-0.05,0.12,-0.09,3.00,-50.00,26.00417.00,-0.51,6.24,-7.99,-0.00,0.09,-0.04,3.00,-50.00,26.00430.00,-0.51,6.24,-7.99,-0.00,0.09,-0.04,3.00,-50.00,26.00441.00,-0.14,6.29,-8.06,0.02,0.08,0.05,3.00,-50.00,26.00452.00,-0.50,6.26,-7.99,-0.14,-0.06,0.06,3.00,-50.00,26.00464.00,-0.50,6.26,-7.99,-0.14,-0.06,0.06,3.00,-50.00,26.00477.00,-0.58,6.32,-7.93,-0.08,-0.09,0.10,3.00,-50.00,26.00489.00,-0.58,6.32,-7.93,-0.08,-0.09,0.10,3.00,-50.00,26.00504.00,-0.54,6.42,-7.90,-0.04,-0.09,0.12,3.00,-53.00,30.00515.00,-1.03,6.24,-7.90,-0.02,-0.07,0.17,3.00,-53.00,30.00527.00,-1.03,6.24,-7.90,-0.02,-0.07,0.17,3.00,-53.00,30.00540.00,-0.32,6.40,-8.00,0.22,0.15,0.21,3.00,-53.00,30.00551.00,-0.66,6.12,-8.18,-0.05,0.02,-0.00,3.00,-53.00,30.00563.00,-0.66,6.12,-8.18,-0.05,0.02,-0.00,3.00,-53.00,30.00575.00,-0.81,6.15,-7.58,-0.34,-0.23,-0.20,3.00,-53.00,30.00588.00,-0.81,6.15,-7.58,-0.34,-0.23,-0.20,3.00,-53.00,30.00599.00,-0.56,6.17,-8.06,-0.02,-0.04,-0.02,3.00,-53.00,30.00611.00,-0.59,6.39,-7.89,-0.02,-0.00,-0.01,3.00,-53.00,30.00623.00,-0.59,6.39,-7.89,-0.02,-0.00,-0.01,3.00,-53.00,30.00636.00,-0.62,6.39,-7.89,0.00,0.01,0.00,5.00,-56.00,26.00648.00,-0.62,6.39,-7.89,0.00,0.01,0.00,5.00,-56.00,26.00661.00,-0.62,6.39,-7.86,0.00,0.01,0.00,5.00,-56.00,26.00673.00,-0.61,6.38,-7.86,0.01,0.01,0.01,5.00,-56.00,26.00685.00,-0.61,6.38,-7.86,0.01,0.01,0.01,5.00,-56.00,26.00697.00,-0.62,6.39,-7.87,0.01,0.01,0.00,5.00,-56.00,26.00709.00,-0.62,6.39,-7.87,0.01,0.01,0.00,5.00,-56.00,26.00721.00,-0.60,6.36,-7.87,0.01,0.01,0.00,5.00,-56.00,26.00733.00,-0.61,6.36,-7.88,0.00,0.01,0.00,5.00,-56.00,26.00746.00,-0.61,6.36,-7.88,0.00,0.01,0.00,5.00,-56.00,26.00757.00,-0.61,6.38,-7.89,0.00,0.01,0.00,3.00,-53.00,30.00769.00,-0.61,6.38,-7.89,0.00,0.01,0.00,3.00,-53.00,30.00780.00,-0.59,6.37,-7.89,0.00,0.01,0.00,3.00,-53.00,30.00793.00,-0.60,6.37,-7.89,0.00,0.01,0.00,3.00,-53.00,30.00804.00,-0.60,6.37,-7.89,0.00,0.01,0.00,3.00,-53.00,30.00815.00,-0.60,6.37,-7.88,0.00,0.01,0.00,3.00,-53.00,30.00827.00,-0.60,6.37,-7.88,0.00,0.01,0.00,3.00,-53.00,30.00839.00,-0.60,6.38,-7.89,0.00,0.01,0.00,3.00,-53.00,30.00852.00,-0.60,6.37,-7.88,0.00,0.01,0.00,3.00,-53.00,30.00864.00,-0.60,6.37,-7.88,0.00,0.01,0.00,3.00,-53.00,30.00876.00,-0.61,6.36,-7.91,0.00,0.01,0.01,5.00,-50.00,30.00888.00,-0.61,6.36,-7.91,0.00,0.01,0.01,5.00,-50.00,30.00901.00,-0.61,6.36,-7.90,0.00,0.01,0.00,5.00,-50.00,30.00912.00,-0.58,6.37,-7.89,0.00,0.01,0.00,5.00,-50.00,30.00924.00,-0.58,6.37,-7.89,0.00,0.01,0.00,5.00,-50.00,30.00935.00,-0.60,6.36,-7.87,0.00,0.01,0.00,5.00,-50.00,30.00947.00,-0.60,6.36,-7.87,0.00,0.01,0.00,5.00,-50.00,30.00960.00,-0.60,6.36,-7.87,0.00,0.01,0.00,5.00,-50.00,30.00971.00,-0.60,6.36,-7.87,0.00,0.01,0.00,5.00,-50.00,30.00982.00,-0.60,6.38,-7.87,0.00,0.01,0.00,5.00,-50.00,30.00994.00,-0.60,6.36,-7.89,0.00,0.01,0.00,5.00,-50.00,30.00998.00,-0.60,6.36,-7.89,0.00,0.01,0.00,5.00,-50.00,30.001074.00,-0.60,6.37,-7.89,0.00,0.01,0.00,1.00,-53.00,30.001153.00,-0.60,6.36,-7.88,0.00,0.01,0.00,3.00,-53.00,30.001232.00,-0.61,6.38,-7.90,0.00,0.01,0.00,3.00,-53.00,30.001322.00,-0.60,6.35,-7.87,0.00,0.01,0.00,1.00,-53.00,30.001334.00,-0.60,6.38,-7.89,0.00,0.01,0.00,1.00,-53.00,30.001346.00,-0.60,6.38,-7.89,0.00,0.01,0.00,1.00,-53.00,30.001358.00,-0.59,6.36,-7.90,0.00,0.01,0.00,1.00,-53.00,30.001369.00,-0.59,6.36,-7.90,0.00,0.01,0.00,1.00,-53.00,30.001382.00,-0.59,6.37,-7.88,0.00,0.01,0.00,1.00,-56.00,30.001393.00,-0.60,6.36,-7.92,0.00,0.01,0.00,1.00,-56.00,30.001405.00,-0.60,6.36,-7.92,0.00,0.01,0.00,1.00,-56.00,30.001417.00,-0.59,6.36,-7.88,0.00,0.01,0.00,1.00,-56.00,30.001430.00,-0.59,6.36,-7.88,0.00,0.01,0.00,1.00,-56.00,30.001442.00,-0.59,6.38,-7.88,0.00,0.01,0.00,1.00,-56.00,30.001454.00,-0.60,6.37,-7.88,0.00,0.01,0.00,1.00,-56.00,30.001466.00,-0.60,6.37,-7.88,0.00,0.01,0.00,1.00,-56.00,30.001478.00,-0.59,6.37,-7.90,0.00,0.01,0.00,1.00,-56.00,30.001490.00,-0.59,6.37,-7.90,0.00,0.01,0.00,1.00,-56.00,30.001501.00,-0.61,6.37,-7.89,0.00,0.01,0.00,1.00,-56.00,30.001513.00,-0.59,6.37,-7.91,0.00,0.01,0.00,5.00,-53.00,30.001524.00,-0.59,6.37,-7.91,0.00,0.01,0.00,5.00,-53.00,30.001537.00,-0.61,6.37,-7.90,0.00,0.01,0.00,5.00,-53.00,30.001549.00,-0.61,6.37,-7.90,0.00,0.01,0.00,5.00,-53.00,30.001561.00,-0.61,6.38,-7.90,0.00,0.01,0.00,5.00,-53.00,30.001573.00,-0.59,6.38,-7.90,0.00,0.01,0.00,5.00,-53.00,30.001586.00,-0.59,6.38,-7.90,0.00,0.01,0.00,5.00,-53.00,30.001598.00,-0.59,6.37,-7.87,0.00,0.01,0.00,5.00,-53.00,30.001609.00,-0.59,6.37,-7.87,0.00,0.01,0.00,5.00,-53.00,30.001620.00,-0.60,6.35,-7.88,0.00,0.01,0.00,5.00,-53.00,30.001633.00,-0.59,6.36,-7.90,0.00,0.01,0.00,3.00,-53.00,30.001644.00,-0.59,6.36,-7.90,0.00,0.01,0.00,3.00,-53.00,30.001656.00,-0.58,6.37,-7.91,0.00,0.01,0.00,3.00,-53.00,30.001668.00,-0.58,6.37,-7.91,0.00,0.01,0.00,3.00,-53.00,30.001680.00,-0.61,6.37,-7.89,0.00,0.01,0.00,3.00,-53.00,30.001693.00,-0.61,6.36,-7.88,0.00,0.01,0.00,3.00,-53.00,30.001705.00,-0.61,6.36,-7.88,0.00,0.01,0.00,3.00,-53.00,30.001716.00,-0.58,6.37,-7.88,0.00,0.01,0.00,3.00,-53.00,30.001728.00,-0.58,6.37,-7.88,0.00,0.01,0.00,3.00,-53.00,30.001741.00,-0.60,6.36,-7.88,0.00,0.01,0.00,3.00,-53.00,30.001752.00,-0.60,6.36,-7.88,0.00,0.01,0.00,3.00,-53.00,30.001764.00,-0.60,6.39,-7.91,0.00,0.01,0.00,1.00,-47.00,26.001776.00,-0.61,6.38,-7.89,0.00,0.01,0.00,1.00,-47.00,26.001789.00,-0.61,6.38,-7.89,0.00,0.01,0.00,1.00,-47.00,26.001800.00,-0.60,6.38,-7.90,0.00,0.01,0.00,1.00,-47.00,26.001812.00,-0.60,6.38,-7.90,0.00,0.01,0.00,1.00,-47.00,26.001824.00,-0.60,6.36,-7.89,0.00,0.01,0.00,1.00,-47.00,26.001836.00,-0.59,6.38,-7.87,0.00,0.01,0.00,1.00,-47.00,26.001847.00,-0.59,6.38,-7.87,0.00,0.01,0.00,1.00,-47.00,26.001859.00,-0.61,6.37,-7.87,0.00,0.01,0.00,1.00,-47.00,26.001870.00,-0.61,6.37,-7.87,0.00,0.01,0.00,1.00,-47.00,26.001881.00,-0.57,6.31,-7.84,0.00,0.01,0.00,3.00,-53.00,30.001894.00,-0.58,6.40,-8.03,0.01,0.01,0.00,3.00,-53.00,30.001905.00,-0.58,6.40,-8.03,0.01,0.01,0.00,3.00,-53.00,30.001916.00,-0.58,6.39,-7.99,0.00,0.01,0.00,3.00,-53.00,30.001928.00,-0.58,6.39,-7.99,0.00,0.01,0.00,3.00,-53.00,30.001941.00,-0.58,6.35,-7.87,-0.00,0.01,0.00,3.00,-53.00,30.001952.00,-0.58,6.35,-7.87,-0.00,0.01,0.00,3.00,-53.00,30.001964.00,-0.60,6.37,-7.90,0.00,0.01,0.00,3.00,-53.00,30.001976.00,-0.61,6.37,-7.91,0.00,0.01,0.00,3.00,-53.00,30.001988.00,-0.61,6.37,-7.91,0.00,0.01,0.00,3.00,-53.00,30.002002.00,-0.60,6.34,-7.85,0.00,0.00,0.00,3.00,-53.00,30.002014.00,-0.61,6.35,-7.88,0.00,0.01,0.00,1.00,-53.00,26.002026.00,-0.61,6.35,-7.88,0.00,0.01,0.00,1.00,-53.00,26.002038.00,-0.59,6.38,-7.90,0.00,0.01,0.00,1.00,-53.00,26.002051.00,-0.59,6.38,-7.90,0.00,0.01,0.00,1.00,-53.00,26.002063.00,-0.61,6.37,-7.90,0.00,0.01,0.00,1.00,-53.00,26.002074.00,-0.59,6.37,-7.88,0.00,0.01,0.00,1.00,-53.00,26.002085.00,-0.59,6.37,-7.88,0.00,0.01,0.00,1.00,-53.00,26.002098.00,-0.59,6.35,-7.87,0.00,0.01,0.00,1.00,-53.00,26.002109.00,-0.59,6.35,-7.87,0.00,0.01,0.00,1.00,-53.00,26.002121.00,-0.61,6.38,-7.88,0.00,0.01,0.00,1.00,-53.00,26.002133.00,-0.59,6.37,-7.88,0.00,0.01,0.00,3.00,-50.00,26.002145.00,-0.59,6.37,-7.88,0.00,0.01,0.00,3.00,-50.00,26.002158.00,-0.60,6.37,-7.88,0.00,0.01,0.00,3.00,-50.00,26.002170.00,-0.60,6.37,-7.88,0.00,0.01,0.00,3.00,-50.00,26.002181.00,-0.60,6.37,-7.88,0.00,0.01,0.00,3.00,-50.00,26.002193.00,-0.61,6.37,-7.87,0.00,0.01,0.00,3.00,-50.00,26.002206.00,-0.61,6.37,-7.87,0.00,0.01,0.00,3.00,-50.00,26.002218.00,-0.60,6.36,-7.88,0.00,0.00,0.00,3.00,-50.00,26.002229.00,-0.60,6.36,-7.88,0.00,0.00,0.00,3.00,-50.00,26.002241.00,-0.60,6.37,-7.91,0.00,0.01,0.00,3.00,-50.00,26.002254.00,-0.60,6.36,-7.90,0.00,0.01,0.00,3.00,-56.00,26.002265.00,-0.60,6.36,-7.90,0.00,0.01,0.00,3.00,-56.00,26.002277.00,-0.61,6.37,-7.88,0.00,0.01,0.00,3.00,-56.00,26.002288.00,-0.61,6.37,-7.88,0.00,0.01,0.00,3.00,-56.00,26.002299.00,-0.60,6.36,-7.87,0.00,0.01,0.00,3.00,-56.00,26.002315.00,-0.61,6.37,-7.87,0.00,0.01,0.00,3.00,-56.00,26.002327.00,-0.61,6.37,-7.87,0.00,0.01,0.00,3.00,-56.00,26.002339.00,-0.59,6.36,-7.88,0.00,0.01,0.00,3.00,-56.00,26.002351.00,-0.59,6.36,-7.88,0.00,0.01,0.00,3.00,-56.00,26.002364.00,-0.59,6.37,-7.89,0.00,0.01,0.00,3.00,-56.00,26.002376.00,-0.61,6.37,-7.90,0.00,0.01,0.00,5.00,-56.00,30.002388.00,-0.61,6.37,-7.90,0.00,0.01,0.00,5.00,-56.00,30.002399.00,-0.61,6.36,-7.89,0.00,0.01,0.00,5.00,-56.00,30.002411.00,-0.61,6.36,-7.89,0.00,0.01,0.00,5.00,-56.00,30.002423.00,-0.59,6.37,-7.87,0.00,0.01,0.00,5.00,-56.00,30.002434.00,-0.60,6.35,-7.89,0.00,0.01,0.00,5.00,-56.00,30.002446.00,-0.60,6.35,-7.89,0.00,0.01,0.00,5.00,-56.00,30.002457.00,-0.59,6.38,-7.88,0.00,0.01,0.00,5.00,-56.00,30.002471.00,-0.59,6.38,-7.88,0.00,0.01,0.00,5.00,-56.00,30.002482.00,-0.59,6.38,-7.89,0.00,0.01,0.00,5.00,-56.00,30.002494.00,-0.59,6.36,-7.89,0.00,0.01,0.00,5.00,-56.00,30.002505.00,-0.59,6.36,-7.89,0.00,0.01,0.00,5.00,-56.00,30.002518.00,-0.59,6.37,-7.92,0.00,0.01,0.00,3.00,-53.00,30.002530.00,-0.59,6.37,-7.92,0.00,0.01,0.00,3.00,-53.00,30.002542.00,-0.60,6.38,-7.89,0.00,0.01,0.00,3.00,-53.00,30.002553.00,-0.59,6.36,-7.87,0.00,0.01,0.00,3.00,-53.00,30.002566.00,-0.59,6.36,-7.87,0.00,0.01,0.00,3.00,-53.00,30.002578.00,-0.58,6.37,-7.89,0.00,0.00,0.00,3.00,-53.00,30.002589.00,-0.58,6.37,-7.89,0.00,0.00,0.00,3.00,-53.00,30.002601.00,-0.58,6.37,-7.90,0.00,0.00,0.00,3.00,-53.00,30.002612.00,-0.58,6.37,-7.90,0.00,0.00,0.00,3.00,-53.00,30.002628.00,-0.58,6.38,-7.87,0.00,0.01,0.00,3.00,-53.00,30.002639.00,-0.60,6.36,-7.91,0.00,0.00,0.00,1.00,-53.00,30.002651.00,-0.60,6.36,-7.91,0.00,0.00,0.00,1.00,-53.00,30.002662.00,-0.62,6.38,-7.90,0.00,0.01,0.00,1.00,-53.00,30.002675.00,-0.61,6.38,-7.87,0.00,0.01,0.00,1.00,-53.00,30.002687.00,-0.61,6.38,-7.87,0.00,0.01,0.00,1.00,-53.00,30.002698.00,-0.59,6.37,-7.90,0.00,0.00,0.00,1.00,-53.00,30.002710.00,-0.59,6.37,-7.90,0.00,0.00,0.00,1.00,-53.00,30.002723.00,-0.59,6.37,-7.89,0.00,0.00,0.00,1.00,-53.00,30.002734.00,-0.58,6.37,-7.87,0.00,0.01,0.00,1.00,-53.00,30.002746.00,-0.58,6.37,-7.87,0.00,0.01,0.00,1.00,-53.00,30.002758.00,-0.59,6.36,-7.88,0.00,0.01,0.00,3.00,-50.00,30.002770.00,-0.59,6.36,-7.88,0.00,0.01,0.00,3.00,-50.00,30.002784.00,-0.60,6.38,-7.92,0.00,0.01,0.00,3.00,-50.00,30.002796.00,-0.59,6.36,-7.87,0.00,0.01,0.00,3.00,-50.00,30.002808.00,-0.59,6.36,-7.87,0.00,0.01,0.00,3.00,-50.00,30.002819.00,-0.59,6.38,-7.91,0.00,0.00,0.00,3.00,-50.00,30.002832.00,-0.59,6.38,-7.91,0.00,0.00,0.00,3.00,-50.00,30.002843.00,-0.60,6.38,-7.90,0.00,0.01,0.00,3.00,-50.00,30.002855.00,-0.59,6.35,-7.87,0.00,0.01,0.00,3.00,-50.00,30.002866.00,-0.59,6.35,-7.87,0.00,0.01,0.00,3.00,-50.00,30.002870.00,-0.59,6.35,-7.87,0.00,0.01,0.00,3.00,-50.00,30.002949.00,-0.60,6.38,-7.90,0.00,0.01,0.00,3.00,-50.00,30.003028.00,-0.60,6.41,-7.99,0.02,0.01,0.00,3.00,-56.00,30.003107.00,-0.59,6.37,-7.92,0.00,0.01,0.00,3.00,-56.00,30.003183.00,-0.56,6.26,-7.77,-0.00,0.01,0.00,3.00,-53.00,30.003271.00,-0.61,6.38,-7.93,0.00,0.01,0.00,5.00,-56.00,30.003283.00,-0.60,6.37,-7.89,0.00,0.00,0.00,5.00,-56.00,30.003294.00,-0.60,6.37,-7.89,0.00,0.00,0.00,5.00,-56.00,30.003305.00,-0.57,6.37,-7.88,0.00,0.01,0.00,5.00,-56.00,30.003318.00,-0.60,6.38,-7.91,0.00,0.01,0.00,5.00,-56.00,30.003329.00,-0.60,6.38,-7.91,0.00,0.01,0.00,5.00,-56.00,30.003340.00,-0.60,6.36,-7.87,0.00,0.01,0.00,5.00,-56.00,30.003352.00,-0.60,6.36,-7.87,0.00,0.01,0.00,5.00,-56.00,30.003364.00,-0.59,6.37,-7.91,0.00,0.01,0.00,5.00,-56.00,30.003376.00,-0.59,6.37,-7.85,0.00,0.01,0.00,5.00,-56.00,30.003387.00,-0.59,6.37,-7.85,0.00,0.01,0.00,5.00,-56.00,30.003399.00,-0.59,6.37,-7.93,0.00,0.01,0.00,5.00,-53.00,30.003410.00,-0.59,6.37,-7.93,0.00,0.01,0.00,5.00,-53.00,30.003423.00,-0.59,6.36,-7.87,0.00,0.00,0.00,5.00,-53.00,30.003434.00,-0.60,6.35,-7.89,0.00,0.01,0.00,5.00,-53.00,30.003446.00,-0.60,6.35,-7.89,0.00,0.01,0.00,5.00,-53.00,30.003458.00,-0.61,6.37,-7.90,0.00,0.01,0.00,5.00,-53.00,30.003470.00,-0.61,6.37,-7.90,0.00,0.01,0.00,5.00,-53.00,30.003481.00,-0.58,6.37,-7.88,0.00,0.01,0.00,5.00,-53.00,30.003493.00,-0.58,6.37,-7.88,0.00,0.01,0.00,5.00,-53.00,30.003504.00,-0.59,6.36,-7.88,0.00,0.01,0.00,5.00,-53.00,30.003517.00,-0.61,6.37,-7.92,0.00,0.01,0.00,3.00,-50.00,26.003529.00,-0.61,6.37,-7.92,0.00,0.01,0.00,3.00,-50.00,26.003540.00,-0.60,6.36,-7.88,0.00,0.01,0.00,3.00,-50.00,26.003554.00,-0.60,6.36,-7.88,0.00,0.01,0.00,3.00,-50.00,26.003565.00,-0.59,6.36,-7.87,0.00,0.01,0.00,3.00,-50.00,26.003578.00,-0.59,6.37,-7.89,0.00,0.00,0.00,3.00,-50.00,26.003589.00,-0.59,6.37,-7.89,0.00,0.00,0.00,3.00,-50.00,26.003601.00,-0.59,6.37,-7.88,0.00,0.00,0.00,3.00,-50.00,26.003613.00,-0.59,6.37,-7.88,0.00,0.00,0.00,3.00,-50.00,26.003625.00,-0.59,6.36,-7.88,0.00,0.00,0.00,3.00,-50.00,26.003637.00,-0.59,6.37,-7.92,0.00,0.01,0.00,3.00,-56.00,21.003648.00,-0.59,6.37,-7.92,0.00,0.01,0.00,3.00,-56.00,21.003659.00,-0.59,6.35,-7.88,0.00,0.00,0.00,3.00,-56.00,21.003672.00,-0.59,6.35,-7.88,0.00,0.00,0.00,3.00,-56.00,21.003684.00,-0.59,6.36,-7.89,0.00,0.01,0.00,3.00,-56.00,21.003695.00,-0.59,6.36,-7.89,0.00,0.01,0.00,3.00,-56.00,21.003707.00,-0.59,6.36,-7.89,0.00,0.01,0.00,3.00,-56.00,21.003718.00,-0.60,6.36,-7.87,0.00,0.01,0.00,3.00,-56.00,21.003731.00,-0.60,6.36,-7.87,0.00,0.01,0.00,3.00,-56.00,21.003743.00,-0.58,6.37,-7.89,0.00,0.01,0.00,3.00,-56.00,21.003754.00,-0.59,6.37,-7.92,0.00,0.01,0.00,3.00,-56.00,21.003766.00,-0.59,6.37,-7.92,0.00,0.01,0.00,3.00,-59.00,30.003778.00,-0.60,6.38,-7.88,0.00,0.01,0.00,3.00,-59.00,30.003790.00,-0.60,6.38,-7.88,0.00,0.01,0.00,3.00,-59.00,30.003801.00,-0.41,6.35,-7.93,0.03,-0.04,0.07,3.00,-59.00,30.003813.00,-0.41,6.35,-7.93,0.03,-0.04,0.07,3.00,-59.00,30.003826.00,-2.20,6.74,-7.63,0.03,-0.07,0.16,3.00,-59.00,30.003837.00,-1.52,8.22,-6.19,0.36,0.50,-0.13,3.00,-59.00,30.003849.00,-1.52,8.22,-6.19,0.36,0.50,-0.13,3.00,-59.00,30.003860.00,-1.36,10.02,-8.81,0.64,1.15,-0.63,3.00,-59.00,30.003872.00,-1.36,10.02,-8.81,0.64,1.15,-0.63,3.00,-59.00,30.003885.00,-1.60,8.33,-13.26,3.86,1.71,-1.31,3.00,-59.00,30.003896.00,1.59,-0.62,-9.13,7.52,1.50,-1.16,3.00,-40.00,34.003908.00,1.59,-0.62,-9.13,7.52,1.50,-1.16,3.00,-40.00,34.003919.00,1.05,-0.32,-10.35,5.26,0.29,0.43,3.00,-40.00,34.003932.00,1.05,-0.32,-10.35,5.26,0.29,0.43,3.00,-40.00,34.003943.00,-0.83,1.65,-10.93,2.56,-0.29,1.58,3.00,-40.00,34.003955.00,1.72,4.36,-13.20,0.31,0.11,1.72,3.00,-40.00,34.003967.00,1.72,4.36,-13.20,0.31,0.11,1.72,3.00,-40.00,34.003971.00,1.72,4.36,-13.20,0.31,0.11,1.72,3.00,-40.00,34.004052.00,0.16,4.74,-10.67,3.71,0.27,4.12,11.00,-2.00,65.004129.00,-1.74,5.75,0.81,-9.88,-1.68,-3.63,11.00,-2.00,65.004210.00,8.55,7.94,2.46,-6.70,6.00,-8.96,11.00,-24.00,56.004298.00,-7.01,8.15,-5.22,0.84,1.07,-2.27,-45.00,-91.00,-96.004310.00,-7.01,8.15,-5.22,0.84,1.07,-2.27,-45.00,-91.00,-96.004321.00,-2.68,7.88,-3.24,-1.84,-0.32,-2.72,-45.00,-91.00,-96.004333.00,-2.68,7.88,-3.24,-1.84,-0.32,-2.72,-45.00,-91.00,-96.004346.00,-3.88,6.75,-1.48,1.23,0.67,-1.84,-45.00,-91.00,-96.004358.00,-6.45,6.98,-4.12,3.20,1.51,-0.68,-45.00,-91.00,-96.004370.00,-6.45,6.98,-4.12,3.20,1.51,-0.68,-45.00,-91.00,-96.004382.00,-5.06,6.19,-2.55,2.33,1.33,-0.06,-45.00,-91.00,-96.004395.00,-1.82,9.01,-2.02,-1.93,1.16,-0.45,-45.00,-91.00,-96.004406.00,-1.82,9.01,-2.02,-1.93,1.16,-0.45,-60.00,-85.00,-74.004418.00,-3.72,10.60,-5.90,-3.51,1.23,-1.33,-60.00,-85.00,-74.004429.00,-3.72,10.60,-5.90,-3.51,1.23,-1.33,-60.00,-85.00,-74.004442.00,-1.43,8.65,-2.45,1.44,1.47,-1.47,-60.00,-85.00,-74.004454.00,-1.43,8.65,-2.45,1.44,1.47,-1.47,-60.00,-85.00,-74.004466.00,-3.31,7.56,-2.88,3.32,1.76,-1.94,-60.00,-85.00,-74.004477.00,-2.40,8.44,-5.11,3.90,1.73,-2.42,-60.00,-85.00,-74.004490.00,-2.40,8.44,-5.11,3.90,1.73,-2.42,-60.00,-85.00,-74.004501.00,-3.36,8.15,-7.96,5.08,1.23,-2.82,-60.00,-85.00,-74.004512.00,-3.36,8.15,-7.96,5.08,1.23,-2.82,-60.00,-85.00,-74.004524.00,-6.59,6.57,-7.43,6.99,-0.35,-2.24,-79.00,-66.00,-31.004536.00,-7.42,6.38,-1.00,7.42,-1.48,-1.25,-79.00,-66.00,-31.004549.00,-7.42,6.38,-1.00,7.42,-1.48,-1.25,-79.00,-66.00,-31.004561.00,-7.56,4.87,-4.71,5.74,-0.51,-0.97,-79.00,-66.00,-31.004573.00,-7.56,4.87,-4.71,5.74,-0.51,-0.97,-79.00,-66.00,-31.004585.00,-6.63,2.31,-8.77,4.49,-0.20,-0.89,-79.00,-66.00,-31.004598.00,-9.00,2.66,-11.06,5.00,-0.77,-0.55,-79.00,-66.00,-31.004610.00,-9.00,2.66,-11.06,5.00,-0.77,-0.55,-79.00,-66.00,-31.004622.00,-4.31,1.05,-6.53,10.08,-0.88,0.10,-79.00,-66.00,-31.004635.00,-4.31,1.05,-6.53,10.08,-0.88,0.10,-79.00,-66.00,-31.004646.00,-3.81,-1.66,-6.12,10.63,-0.30,0.88,-81.00,-15.00,21.004658.00,-7.55,-1.73,-9.11,6.64,-0.69,1.16,-81.00,-15.00,21.004669.00,-7.55,-1.73,-9.11,6.64,-0.69,1.16,-81.00,-15.00,21.004680.00,-6.08,-5.91,0.55,5.11,-0.82,1.56,-81.00,-15.00,21.004693.00,-6.08,-5.91,0.55,5.11,-0.82,1.56,-81.00,-15.00,21.004705.00,-8.63,-2.38,-4.37,-2.61,-0.64,1.58,-81.00,-15.00,21.004717.00,-6.65,2.30,-9.94,-4.79,-0.28,1.59,-81.00,-15.00,21.004729.00,-6.65,2.30,-9.94,-4.79,-0.28,1.59,-81.00,-15.00,21.004741.00,-7.69,4.30,-7.25,-0.56,0.11,1.75,-81.00,-15.00,21.004752.00,-7.69,4.30,-7.25,-0.56,0.11,1.75,-81.00,-15.00,21.004763.00,-7.51,4.19,-8.21,0.77,0.06,0.75,-81.00,-24.00,21.004776.00,-7.27,0.63,-7.01,1.77,-0.08,-0.13,-81.00,-24.00,21.004789.00,-7.27,0.63,-7.01,1.77,-0.08,-0.13,-81.00,-24.00,21.004801.00,-8.15,-1.30,-6.15,1.45,-0.20,-0.46,-81.00,-24.00,21.004813.00,-8.15,-1.30,-6.15,1.45,-0.20,-0.46,-81.00,-24.00,21.004825.00,-10.22,-0.63,-6.46,0.69,-0.28,-0.53,-81.00,-24.00,21.004838.00,-6.97,2.85,-8.82,0.19,-0.19,-0.78,-81.00,-24.00,21.004850.00,-6.97,2.85,-8.82,0.19,-0.19,-0.78,-81.00,-24.00,21.004862.00,-5.01,0.85,-5.71,1.24,-0.08,-0.88,-81.00,-24.00,21.004874.00,-5.01,0.85,-5.71,1.24,-0.08,-0.88,-81.00,-24.00,21.004887.00,-5.46,1.42,-7.30,-0.07,-0.47,-1.30,-81.00,-24.00,21.004899.00,-7.08,-0.20,-5.43,0.03,-0.83,-1.88,-79.00,-8.00,17.004911.00,-7.08,-0.20,-5.43,0.03,-0.83,-1.88,-79.00,-8.00,17.004923.00,-8.04,-1.13,-5.42,-1.74,-0.97,-2.49,-79.00,-8.00,17.004936.00,-8.04,-1.13,-5.42,-1.74,-0.97,-2.49,-79.00,-8.00,17.004947.00,-6.29,-2.95,-6.72,-3.51,-0.76,-3.08,-79.00,-8.00,17.004959.00,-4.12,-6.20,-9.70,-3.51,-0.68,-2.90,-79.00,-8.00,17.004971.00,-4.12,-6.20,-9.70,-3.51,-0.68,-2.90,-79.00,-8.00,17.004984.00,-6.02,-8.72,-5.18,-2.24,-0.93,-1.76,-79.00,-8.00,17.004995.00,-6.02,-8.72,-5.18,-2.24,-0.93,-1.76,-79.00,-8.00,17.005007.00,-8.95,-5.72,-2.37,-4.08,-0.75,-0.60,-79.00,-8.00,17.005019.00,-9.19,-1.92,-5.99,-6.61,0.05,0.03,-85.00,-2.00,4.005032.00,-9.19,-1.92,-5.99,-6.61,0.05,0.03,-85.00,-2.00,4.005044.00,-7.57,-0.63,-6.76,-7.08,0.35,0.37,-85.00,-2.00,4.005055.00,-7.57,-0.63,-6.76,-7.08,0.35,0.37,-85.00,-2.00,4.005067.00,-4.76,0.27,-15.29,-8.82,-0.39,0.76,-85.00,-2.00,4.005080.00,-7.47,4.71,-4.98,-5.97,-1.67,1.58,-85.00,-2.00,4.005091.00,-7.47,4.71,-4.98,-5.97,-1.67,1.58,-85.00,-2.00,4.005102.00,-9.58,8.59,-4.61,-4.93,-1.90,1.08,-85.00,-2.00,4.005114.00,-9.58,8.59,-4.61,-4.93,-1.90,1.08,-85.00,-2.00,4.005127.00,-10.71,5.62,-3.20,-2.01,-0.78,0.28,-85.00,-2.00,4.005139.00,-7.98,5.33,-4.23,-1.52,0.51,-0.11,-88.00,-37.00,-40.005151.00,-7.98,5.33,-4.23,-1.52,0.51,-0.11,-88.00,-37.00,-40.005163.00,-5.69,3.77,-5.43,-0.22,1.05,-0.40,-88.00,-37.00,-40.005176.00,-6.46,3.52,-7.67,0.92,0.71,-0.22,-88.00,-37.00,-40.005188.00,-6.46,3.52,-7.67,0.92,0.71,-0.22,-88.00,-37.00,-40.005199.00,-7.67,6.55,-6.97,1.82,0.18,-0.02,-88.00,-37.00,-40.005210.00,-7.67,6.55,-6.97,1.82,0.18,-0.02,-88.00,-37.00,-40.005223.00,-9.16,6.83,0.62,3.24,0.25,-1.11,-88.00,-37.00,-40.005235.00,-9.16,6.83,0.62,3.24,0.25,-1.11,-88.00,-37.00,-40.005247.00,-2.81,1.68,-11.18,1.82,0.61,-2.33,-88.00,-37.00,-40.005258.00,-8.03,2.02,-5.71,9.58,1.05,-0.45,-88.00,-37.00,-40.005271.00,-8.03,2.02,-5.71,9.58,1.05,-0.45,-88.00,-37.00,-40.005282.00,-9.60,3.79,-11.91,11.94,1.26,-0.43,-90.00,-15.00,-9.005293.00,-9.60,3.79,-11.91,11.94,1.26,-0.43,-90.00,-15.00,-9.005305.00,-6.93,3.98,-9.40,16.85,0.57,-1.00,-90.00,-15.00,-9.005318.00,-5.29,2.50,2.21,17.44,0.00,-0.79,-90.00,-15.00,-9.005330.00,-5.29,2.50,2.21,17.44,0.00,-0.79,-90.00,-15.00,-9.005342.00,-5.84,-6.85,7.64,17.44,-0.27,-0.58,-90.00,-15.00,-9.005353.00,-5.84,-6.85,7.64,17.44,-0.27,-0.58,-90.00,-15.00,-9.005366.00,-7.64,-18.41,7.14,9.99,-0.77,0.16,-90.00,-15.00,-9.005378.00,-9.24,-9.92,7.72,1.88,-0.70,1.88,-90.00,-15.00,-9.005389.00,-9.24,-9.92,7.72,1.88,-0.70,1.88,-90.00,-15.00,-9.005401.00,-7.93,-1.25,5.32,-3.98,0.09,2.11,-83.00,65.00,-48.005413.00,-7.93,-1.25,5.32,-3.98,0.09,2.11,-83.00,65.00,-48.005426.00,-8.22,-0.64,3.82,-6.97,0.82,1.01,-83.00,65.00,-48.005438.00,-6.32,-6.81,0.58,-8.40,1.53,0.12,-83.00,65.00,-48.005449.00,-6.32,-6.81,0.58,-8.40,1.53,0.12,-83.00,65.00,-48.005461.00,-3.11,-12.03,-6.03,-10.04,2.04,1.27,-83.00,65.00,-48.005474.00,-3.11,-12.03,-6.03,-10.04,2.04,1.27,-83.00,65.00,-48.005486.00,-3.14,-8.23,0.68,-7.42,2.48,4.28,-83.00,65.00,-48.005498.00,-4.19,12.40,-17.06,-9.92,2.23,5.38,-83.00,65.00,-48.005510.00,-4.19,12.40,-17.06,-9.92,2.23,5.38,-83.00,65.00,-48.005523.00,-8.07,11.55,-6.75,-4.89,-0.68,3.06,-85.00,-18.00,0.005535.00,-8.07,11.55,-6.75,-4.89,-0.68,3.06,-85.00,-18.00,0.005547.00,-12.17,6.61,-3.96,0.31,-0.19,0.31,-85.00,-18.00,0.005559.00,-6.80,-3.15,-9.57,0.48,0.83,-1.24,-85.00,-18.00,0.005572.00,-6.80,-3.15,-9.57,0.48,0.83,-1.24,-85.00,-18.00,0.005584.00,-5.96,-3.41,-7.88,-0.10,-0.12,-0.42,-85.00,-18.00,0.005595.00,-5.96,-3.41,-7.88,-0.10,-0.12,-0.42,-85.00,-18.00,0.005607.00,-8.26,1.90,-5.32,-0.37,-0.77,0.24,-85.00,-18.00,0.005620.00,-8.87,0.44,-5.38,0.25,-0.59,-0.32,-85.00,-18.00,0.005631.00,-8.87,0.44,-5.38,0.25,-0.59,-0.32,-85.00,-18.00,0.005643.00,-8.27,-2.90,-5.98,0.44,-0.47,-0.55,-88.00,-15.00,-9.005654.00,-8.27,-2.90,-5.98,0.44,-0.47,-0.55,-88.00,-15.00,-9.005668.00,-7.91,-2.30,-5.61,0.12,-0.54,-0.12,-88.00,-15.00,-9.005680.00,-9.01,-1.00,-4.93,0.03,-0.50,0.12,-88.00,-15.00,-9.005691.00,-9.01,-1.00,-4.93,0.03,-0.50,0.12,-88.00,-15.00,-9.005703.00,-8.89,-1.43,-4.63,-0.05,-0.33,-0.00,-88.00,-15.00,-9.005715.00,-8.89,-1.43,-4.63,-0.05,-0.33,-0.00,-88.00,-15.00,-9.005727.00,-8.45,-1.41,-5.00,-0.18,-0.10,0.00,-88.00,-15.00,-9.005738.00,-8.20,-0.84,-5.65,-0.24,-0.00,0.05,-88.00,-15.00,-9.005750.00,-8.20,-0.84,-5.65,-0.24,-0.00,0.05,-88.00,-15.00,-9.005754.00,-8.20,-0.84,-5.65,-0.24,-0.00,0.05,-88.00,-15.00,-9.005833.00,-8.14,-0.69,-5.71,-0.36,-0.08,0.08,-85.00,-12.00,-5.005912.00,-8.08,-1.38,-5.44,-0.27,-0.22,-0.28,-90.00,-15.00,-18.005991.00,-8.03,-1.04,-5.60,-0.22,0.15,-0.19,-90.00,-15.00,-18.006081.00,-8.17,-1.18,-5.60,0.02,-0.15,-0.13,-88.00,-18.00,-9.006093.00,-8.17,-1.18,-5.60,0.02,-0.15,-0.13,-88.00,-18.00,-9.006104.00,-8.46,-0.82,-5.30,-0.07,-0.18,0.04,-88.00,-18.00,-9.006115.00,-8.46,-0.82,-5.30,-0.07,-0.18,0.04,-88.00,-18.00,-9.006128.00,-8.84,-0.04,-5.53,-0.04,-0.16,0.13,-88.00,-18.00,-9.006140.00,-8.58,-0.31,-5.44,0.12,-0.18,-0.04,-90.00,-8.00,-18.006152.00,-8.58,-0.31,-5.44,0.12,-0.18,-0.04,-90.00,-8.00,-18.006163.00,-8.38,-0.99,-5.51,0.32,-0.23,-0.24,-90.00,-8.00,-18.006176.00,-8.38,-0.99,-5.51,0.32,-0.23,-0.24,-90.00,-8.00,-18.006187.00,-8.52,-1.74,-5.00,0.44,-0.33,-0.35,-90.00,-8.00,-18.006199.00,-8.95,-2.05,-4.32,0.40,-0.31,-0.36,-90.00,-8.00,-18.006210.00,-8.95,-2.05,-4.32,0.40,-0.31,-0.36,-90.00,-8.00,-18.006223.00,-9.17,-2.32,-4.06,0.28,-0.09,-0.30,-90.00,-8.00,-18.006235.00,-9.17,-2.32,-4.06,0.28,-0.09,-0.30,-90.00,-8.00,-18.006247.00,-8.47,-2.39,-4.72,0.09,0.15,-0.18,-90.00,-8.00,-18.006259.00,-8.17,-1.86,-5.08,-0.04,0.17,-0.05,-90.00,-8.00,-18.006272.00,-8.17,-1.86,-5.08,-0.04,0.17,-0.05,-90.00,-8.00,-18.006284.00,-8.33,-1.42,-5.27,-0.09,0.10,0.00,-90.00,-12.00,-9.006296.00,-8.33,-1.42,-5.27,-0.09,0.10,0.00,-90.00,-12.00,-9.006307.00,-8.74,-0.84,-5.52,-0.08,0.08,0.01,-90.00,-12.00,-9.006320.00,-8.71,-0.97,-5.39,0.02,0.11,-0.04,-90.00,-12.00,-9.006332.00,-8.71,-0.97,-5.39,0.02,0.11,-0.04,-90.00,-12.00,-9.006344.00,-8.15,-1.50,-5.53,0.08,0.11,-0.03,-90.00,-12.00,-9.006355.00,-8.15,-1.50,-5.53,0.08,0.11,-0.03,-90.00,-12.00,-9.006368.00,-8.25,-0.74,-5.45,0.12,-0.01,0.12,-90.00,-12.00,-9.006380.00,-8.84,-0.88,-5.37,0.23,-0.09,0.11,-90.00,-12.00,-9.006392.00,-8.84,-0.88,-5.37,0.23,-0.09,0.11,-90.00,-12.00,-9.006403.00,-9.19,-1.01,-4.84,0.25,-0.11,0.01,-90.00,-5.00,-14.006416.00,-9.19,-1.01,-4.84,0.25,-0.11,0.01,-90.00,-5.00,-14.006428.00,-8.67,-1.84,-4.72,0.22,-0.00,-0.06,-90.00,-5.00,-14.006439.00,-8.07,-1.68,-5.51,0.19,0.10,0.07,-90.00,-5.00,-14.006451.00,-8.07,-1.68,-5.51,0.19,0.10,0.07,-90.00,-5.00,-14.006464.00,-8.56,-1.28,-5.40,0.23,0.04,0.21,-90.00,-5.00,-14.006476.00,-8.56,-1.28,-5.40,0.23,0.04,0.21,-90.00,-5.00,-14.006488.00,-8.81,-1.64,-4.76,0.20,0.04,0.23,-90.00,-5.00,-14.006499.00,-8.40,-1.42,-5.20,0.10,0.05,0.19,-90.00,-5.00,-14.006512.00,-8.40,-1.42,-5.20,0.10,0.05,0.19,-90.00,-5.00,-14.006524.00,-8.40,-1.82,-5.00,0.10,-0.05,0.12,-90.00,-8.00,-14.006536.00,-8.40,-1.82,-5.00,0.10,-0.05,0.12,-90.00,-8.00,-14.006548.00,-8.25,-0.98,-5.61,0.11,-0.11,0.18,-90.00,-8.00,-14.006561.00,-7.90,-0.59,-6.56,0.21,-0.28,0.11,-90.00,-8.00,-14.006573.00,-7.90,-0.59,-6.56,0.21,-0.28,0.11,-90.00,-8.00,-14.006585.00,-8.31,-0.56,-6.20,0.38,-0.59,0.02,-90.00,-8.00,-14.006596.00,-8.31,-0.56,-6.20,0.38,-0.59,0.02,-90.00,-8.00,-14.006610.00,-9.77,-0.81,-3.73,0.36,-0.71,-0.16,-90.00,-8.00,-14.006622.00,-8.92,-2.72,-3.79,0.20,-0.42,-0.34,-90.00,-8.00,-14.006633.00,-8.92,-2.72,-3.79,0.20,-0.42,-0.34,-90.00,-8.00,-14.006645.00,-9.03,-3.10,-4.13,-0.11,-0.49,-0.18,-88.00,-5.00,-22.006658.00,-9.03,-3.10,-4.13,-0.11,-0.49,-0.18,-88.00,-5.00,-22.006669.00,-9.19,-1.84,-3.77,-0.36,-0.63,-0.11,-88.00,-5.00,-22.006681.00,-9.01,-0.97,-3.63,-0.32,-0.53,-0.27,-88.00,-5.00,-22.006693.00,-9.01,-0.97,-3.63,-0.32,-0.53,-0.27,-88.00,-5.00,-22.006697.00,-9.01,-0.97,-3.63,-0.32,-0.53,-0.27,-88.00,-5.00,-22.006776.00,-8.91,-0.80,-5.58,-0.27,0.28,-0.75,-88.00,-5.00,-22.006855.00,-8.79,-2.25,-4.52,0.16,0.10,-0.06,-96.00,-2.00,-27.006934.00,-9.71,-0.78,-4.15,-0.21,-0.15,0.59,-92.00,-2.00,-22.007025.00,-8.79,-2.33,-2.69,-0.03,-0.55,-0.09,-96.00,-5.00,-31.007037.00,-8.79,-2.33,-2.69,-0.03,-0.55,-0.09,-96.00,-5.00,-31.007049.00,-8.93,-2.18,-3.93,-0.25,-0.30,-0.19,-96.00,-5.00,-31.007060.00,-8.98,-3.01,-2.38,-0.36,-0.21,-0.47,-96.00,-5.00,-31.007073.00,-8.98,-3.01,-2.38,-0.36,-0.21,-0.47,-96.00,-5.00,-31.007085.00,-8.52,-1.31,-4.08,-0.34,0.16,-0.52,-96.00,-5.00,-31.007097.00,-8.52,-1.31,-4.08,-0.34,0.16,-0.52,-96.00,-5.00,-31.007108.00,-8.71,-1.20,-5.28,-0.37,0.41,-0.65,-96.00,-5.00,-31.007123.00,-8.69,-0.68,-6.30,-0.21,0.50,-0.48,-96.00,-5.00,-31.007134.00,-8.69,-0.68,-6.30,-0.21,0.50,-0.48,-96.00,-5.00,-31.007146.00,-9.15,-0.51,-5.50,0.05,0.42,-0.33,-96.00,-5.00,-31.007157.00,-9.15,-0.51,-5.50,0.05,0.42,-0.33,-96.00,-5.00,-31.007170.00,-9.28,-1.97,-4.62,0.11,0.22,-0.25,-96.00,1.00,-35.007182.00,-9.35,-1.39,-4.27,-0.05,0.04,-0.10,-96.00,1.00,-35.007193.00,-9.35,-1.39,-4.27,-0.05,0.04,-0.10,-96.00,1.00,-35.007205.00,-9.16,-2.43,-3.80,-0.09,-0.03,-0.10,-96.00,1.00,-35.007218.00,-9.16,-2.43,-3.80,-0.09,-0.03,-0.10,-96.00,1.00,-35.007230.00,-9.26,-2.58,-4.44,-0.02,-0.05,0.20,-96.00,1.00,-35.007242.00,-9.26,-1.53,-4.12,0.09,-0.20,0.53,-96.00,1.00,-35.007253.00,-9.26,-1.53,-4.12,0.09,-0.20,0.53,-96.00,1.00,-35.007266.00,-8.58,-1.67,-4.59,0.13,-0.31,0.60,-96.00,1.00,-35.007279.00,-9.00,-1.82,-4.12,0.20,-0.38,0.48,-92.00,-2.00,-31.007290.00,-9.00,-1.82,-4.12,0.20,-0.38,0.48,-92.00,-2.00,-31.007302.00,-9.08,-2.80,-2.18,0.22,-0.49,0.36,-92.00,-2.00,-31.007315.00,-9.08,-2.80,-2.18,0.22,-0.49,0.36,-92.00,-2.00,-31.007327.00,-8.97,-3.34,-3.63,-0.07,-0.48,0.23,-92.00,-2.00,-31.007338.00,-8.97,-3.34,-3.63,-0.07,-0.48,0.23,-92.00,-2.00,-31.007350.00,-8.87,-2.59,-2.40,-0.28,-0.50,0.15,-92.00,-2.00,-31.007363.00,-9.02,-2.09,-2.92,-0.37,-0.31,-0.09,-92.00,-2.00,-31.007375.00,-9.02,-2.09,-2.92,-0.37,-0.31,-0.09,-92.00,-2.00,-31.007387.00,-8.51,-2.60,-2.61,-0.41,-0.03,-0.38,-92.00,-2.00,-31.007398.00,-8.51,-2.60,-2.61,-0.41,-0.03,-0.38,-92.00,-2.00,-31.007411.00,-8.72,-2.20,-4.67,-0.32,0.26,-0.35,-94.00,1.00,-35.007423.00,-8.53,-0.92,-5.52,-0.05,0.36,-0.27,-94.00,1.00,-35.007437.00,-8.53,-0.92,-5.52,-0.05,0.36,-0.27,-94.00,1.00,-35.007448.00,-8.59,-0.94,-5.63,0.15,0.47,-0.27,-94.00,1.00,-35.007461.00,-8.23,-1.17,-5.71,0.00,0.47,-0.22,-94.00,1.00,-35.007473.00,-8.23,-1.17,-5.71,0.00,0.47,-0.22,-94.00,1.00,-35.007485.00,-9.29,-0.81,-5.71,-0.24,0.32,-0.23,-94.00,1.00,-35.007496.00,-9.29,-0.81,-5.71,-0.24,0.32,-0.23,-94.00,1.00,-35.007507.00,-9.10,-0.98,-4.36,-0.15,0.12,-0.22,-94.00,1.00,-35.007520.00,-9.34,-1.59,-3.90,-0.03,0.03,-0.09,-94.00,1.00,-35.007532.00,-9.34,-1.59,-3.90,-0.03,0.03,-0.09,-94.00,1.00,-35.007544.00,-8.87,-2.53,-3.57,-0.04,0.01,0.07,-94.00,1.00,-35.007555.00,-8.87,-2.53,-3.57,-0.04,0.01,0.07,-94.00,1.00,-35.007567.00,-9.40,-2.15,-4.29,-0.01,0.05,0.33,-94.00,1.00,-35.007579.00,-9.30,-1.16,-3.96,0.07,-0.07,0.48,-94.00,1.00,-35.007590.00,-9.30,-1.16,-3.96,0.07,-0.07,0.48,-94.00,1.00,-35.007602.00,-9.30,-1.54,-4.57,0.18,-0.08,0.48,-94.00,1.00,-35.007615.00,-9.30,-1.54,-4.57,0.18,-0.08,0.48,-94.00,1.00,-35.007627.00,-9.35,-1.47,-3.93,0.22,-0.21,0.45,-94.00,1.00,-35.007639.00,-8.87,-2.47,-4.62,0.20,-0.25,0.28,-94.00,1.00,-35.007651.00,-8.87,-2.47,-4.62,0.20,-0.25,0.28,-94.00,1.00,-35.007664.00,-9.43,-1.08,-2.78,0.13,-0.33,0.12,-92.00,-5.00,-35.007675.00,-9.43,-1.08,-2.78,0.13,-0.33,0.12,-92.00,-5.00,-35.007687.00,-9.52,-2.04,-3.06,0.11,-0.19,0.00,-92.00,-5.00,-35.007699.00,-8.91,-3.08,-2.95,-0.02,-0.13,0.05,-92.00,-5.00,-35.007712.00,-8.91,-3.08,-2.95,-0.02,-0.13,0.05,-92.00,-5.00,-35.007724.00,-8.77,-2.48,-4.13,-0.12,-0.08,0.08,-92.00,-5.00,-35.007735.00,-8.77,-2.48,-4.13,-0.12,-0.08,0.08,-92.00,-5.00,-35.007747.00,-9.00,-1.92,-3.38,-0.21,-0.06,0.06,-92.00,-5.00,-35.007761.00,-9.21,-1.06,-4.09,-0.19,-0.03,-0.15,-92.00,-5.00,-35.007772.00,-9.21,-1.06,-4.09,-0.19,-0.03,-0.15,-92.00,-5.00,-35.007784.00,-8.95,-2.02,-4.26,-0.09,0.06,-0.36,-92.00,-5.00,-40.007796.00,-8.95,-2.02,-4.26,-0.09,0.06,-0.36,-92.00,-5.00,-40.007808.00,-8.47,-1.86,-4.96,-0.18,0.26,-0.41,-92.00,-5.00,-40.007820.00,-8.24,-1.05,-5.83,-0.20,0.42,-0.22,-92.00,-5.00,-40.007831.00,-8.24,-1.05,-5.83,-0.20,0.42,-0.22,-92.00,-5.00,-40.007843.00,-9.35,0.08,-5.68,-0.05,0.34,0.03,-92.00,-5.00,-40.007856.00,-9.35,0.08,-5.68,-0.05,0.34,0.03,-92.00,-5.00,-40.007868.00,-8.64,-0.63,-4.69,0.09,0.12,-0.07,-92.00,-5.00,-40.007880.00,-9.25,-1.57,-4.26,0.07,0.07,-0.16,-92.00,-5.00,-40.007892.00,-9.25,-1.57,-4.26,0.07,0.07,-0.16,-92.00,-5.00,-40.007905.00,-9.20,-0.56,-3.68,0.00,-0.00,-0.06,-94.00,-2.00,-31.007916.00,-9.20,-0.56,-3.68,0.00,-0.00,-0.06,-94.00,-2.00,-31.007928.00,-9.54,-1.20,-4.38,0.06,-0.00,0.01,-94.00,-2.00,-31.007940.00,-9.59,-1.36,-4.40,0.15,-0.07,0.22,-94.00,-2.00,-31.007953.00,-9.59,-1.36,-4.40,0.15,-0.07,0.22,-94.00,-2.00,-31.007964.00,-10.19,0.06,-3.38,0.22,-0.14,0.41,-94.00,-2.00,-31.007976.00,-10.19,0.06,-3.38,0.22,-0.14,0.41,-94.00,-2.00,-31.007988.00,-9.42,-0.36,-3.75,0.25,-0.12,0.25,-94.00,-2.00,-31.008001.00,-10.11,-0.81,-3.16,0.22,-0.22,0.10,-94.00,-2.00,-31.008011.00,-10.11,-0.81,-3.16,0.22,-0.22,0.10,-94.00,-2.00,-31.008023.00,-9.26,-2.68,-3.15,0.15,-0.24,-0.04,-94.00,-5.00,-40.008034.00,-9.26,-2.68,-3.15,0.15,-0.24,-0.04,-94.00,-5.00,-40.008048.00,-8.87,-3.81,-2.72,0.04,-0.24,-0.04,-94.00,-5.00,-40.008060.00,-8.84,-3.37,-2.64,-0.12,-0.17,0.01,-94.00,-5.00,-40.008072.00,-8.84,-3.37,-2.64,-0.12,-0.17,0.01,-94.00,-5.00,-40.008083.00,-9.10,-3.61,-2.65,-0.31,-0.05,-0.04,-94.00,-5.00,-40.008096.00,-9.10,-3.61,-2.65,-0.31,-0.05,-0.04,-94.00,-5.00,-40.008108.00,-8.36,-2.82,-4.52,-0.43,0.11,-0.05,-94.00,-5.00,-40.008120.00,-8.41,-2.02,-5.34,-0.44,0.18,-0.08,-94.00,-5.00,-40.008131.00,-8.41,-2.02,-5.34,-0.44,0.18,-0.08,-94.00,-5.00,-40.008144.00,-8.13,-0.24,-6.78,-0.39,0.18,-0.06,-94.00,-5.00,-40.008155.00,-8.13,-0.24,-6.78,-0.39,0.18,-0.06,-94.00,-5.00,-40.008167.00,-8.84,-0.16,-6.42,-0.21,0.07,-0.12,-94.00,-5.00,-40.008179.00,-8.84,-0.16,-6.42,-0.21,0.07,-0.12,-94.00,-5.00,-40.008193.00,-8.60,-1.00,-5.62,-0.03,0.02,-0.15,-94.00,-5.00,-40.008205.00,-9.16,-0.10,-5.07,-0.03,0.02,-0.13,-94.00,-5.00,-40.008216.00,-9.16,-0.10,-5.07,-0.03,0.02,-0.13,-94.00,-5.00,-40.008228.00,-8.81,-0.74,-4.73,-0.00,0.05,-0.19,-94.00,-5.00,-40.008241.00,-9.39,-0.21,-4.01,0.11,-0.02,-0.13,-94.00,-5.00,-40.008253.00,-9.39,-0.21,-4.01,0.11,-0.02,-0.13,-94.00,-5.00,-40.008264.00,-8.93,-1.32,-3.34,0.15,-0.04,-0.11,-94.00,-5.00,-40.008276.00,-8.93,-1.32,-3.34,0.15,-0.04,-0.11,-94.00,-5.00,-40.008289.00,-8.92,-2.07,-3.57,0.10,0.08,0.02,-92.00,-5.00,-40.008301.00,-9.52,-0.90,-3.89,0.01,0.15,0.18,-92.00,-5.00,-40.008312.00,-9.52,-0.90,-3.89,0.01,0.15,0.18,-92.00,-5.00,-40.008324.00,-9.78,-0.96,-4.06,0.04,0.09,0.27,-92.00,-5.00,-40.008338.00,-9.78,-0.96,-4.06,0.04,0.09,0.27,-92.00,-5.00,-40.008350.00,-9.31,-2.03,-4.26,0.04,-0.02,0.27,-92.00,-5.00,-40.008361.00,-9.80,-1.10,-2.64,0.04,-0.17,0.31,-92.00,-5.00,-40.008373.00,-9.80,-1.10,-2.64,0.04,-0.17,0.31,-92.00,-5.00,-40.008386.00,-9.28,-1.78,-3.20,0.01,-0.13,0.15,-92.00,-5.00,-40.008398.00,-9.28,-1.78,-3.20,0.01,-0.13,0.15,-92.00,-5.00,-40.008410.00,-9.31,-2.52,-2.48,-0.01,-0.15,0.12,-94.00,-2.00,-27.008421.00,-8.88,-3.00,-3.59,-0.12,-0.12,0.09,-94.00,-2.00,-27.008434.00,-8.88,-3.00,-3.59,-0.12,-0.12,0.09,-94.00,-2.00,-27.008446.00,-8.67,-1.86,-4.20,-0.21,-0.06,0.02,-94.00,-2.00,-27.008458.00,-8.67,-1.86,-4.20,-0.21,-0.06,0.02,-94.00,-2.00,-27.008469.00,-8.36,-1.74,-4.74,-0.20,-0.08,-0.18,-94.00,-2.00,-27.008476.00,-8.36,-1.74,-4.74,-0.20,-0.08,-0.18,-94.00,-2.00,-27.008552.00,-8.55,0.78,-5.95,-0.14,0.16,-0.12,-92.00,-2.00,-31.008631.00,-9.78,-1.12,-3.41,0.13,-0.07,-0.15,-92.00,-2.00,-31.008710.00,-9.38,-1.79,-2.35,0.09,-0.14,0.17,-96.00,-2.00,-35.008801.00,-8.95,-2.98,-2.91,-0.34,0.01,0.03,-94.00,-2.00,-40.008812.00,-8.95,-2.98,-2.91,-0.34,0.01,0.03,-94.00,-2.00,-40.008823.00,-8.23,-1.87,-4.17,-0.37,0.06,-0.10,-94.00,-2.00,-40.008835.00,-8.23,-1.87,-4.17,-0.37,0.06,-0.10,-94.00,-2.00,-40.008848.00,-8.24,-2.78,-4.86,-0.27,0.12,-0.20,-94.00,-2.00,-40.008860.00,-8.24,-2.78,-4.86,-0.27,0.12,-0.20,-94.00,-2.00,-40.008871.00,-8.58,-0.67,-6.12,-0.19,0.11,-0.05,-94.00,-2.00,-40.008883.00,-8.79,-0.37,-5.90,-0.06,0.07,-0.01,-94.00,-2.00,-40.008896.00,-8.79,-0.37,-5.90,-0.06,0.07,-0.01,-94.00,-2.00,-40.008908.00,-8.65,0.76,-5.78,-0.02,0.02,0.03,-96.00,-5.00,-40.008919.00,-8.65,0.76,-5.78,-0.02,0.02,0.03,-96.00,-5.00,-40.008931.00,-9.03,0.33,-5.59,0.05,-0.05,-0.08,-96.00,-5.00,-40.008945.00,-9.24,-0.44,-4.52,0.15,-0.16,-0.12,-96.00,-5.00,-40.008956.00,-9.24,-0.44,-4.52,0.15,-0.16,-0.12,-96.00,-5.00,-40.008968.00,-9.46,-1.10,-2.66,0.17,-0.07,0.02,-96.00,-5.00,-40.008980.00,-9.46,-1.10,-2.66,0.17,-0.07,0.02,-96.00,-5.00,-40.008994.00,-9.87,-0.46,-2.57,0.06,0.13,0.20,-96.00,-5.00,-40.009006.00,-10.20,-0.03,-2.96,0.02,0.12,0.26,-96.00,-5.00,-40.009017.00,-10.20,-0.03,-2.96,0.02,0.12,0.26,-96.00,-5.00,-40.009029.00,-10.07,-1.47,-2.27,0.07,-0.09,0.08,-96.00,-5.00,-40.009041.00,-9.93,-1.81,-1.65,0.07,-0.18,0.07,-92.00,-2.00,-31.009055.00,-9.93,-1.81,-1.65,0.07,-0.18,0.07,-92.00,-2.00,-31.009067.00,-9.26,-1.56,-1.76,-0.03,-0.09,0.10,-92.00,-2.00,-31.009079.00,-9.26,-1.56,-1.76,-0.03,-0.09,0.10,-92.00,-2.00,-31.009090.00,-8.83,-3.74,-4.69,-0.16,0.05,-0.01,-92.00,-2.00,-31.009104.00,-9.00,-2.65,-4.03,-0.21,-0.10,0.07,-92.00,-2.00,-31.009118.00,-9.00,-2.65,-4.03,-0.21,-0.10,0.07,-92.00,-2.00,-31.009130.00,-9.41,-2.07,-3.18,-0.21,-0.20,-0.05,-92.00,-2.00,-31.009143.00,-8.66,-3.24,-3.23,-0.21,-0.14,-0.27,-92.00,-2.00,-31.009154.00,-8.66,-3.24,-3.23,-0.21,-0.14,-0.27,-92.00,-2.00,-31.009166.00,-8.86,-2.44,-3.70,-0.25,-0.05,-0.30,-96.00,-2.00,-40.009178.00,-8.86,-2.44,-3.70,-0.25,-0.05,-0.30,-96.00,-2.00,-40.009191.00,-8.10,-2.09,-5.15,-0.19,0.10,-0.21,-96.00,-2.00,-40.009202.00,-8.65,-1.57,-5.44,-0.15,0.14,-0.08,-96.00,-2.00,-40.009214.00,-8.65,-1.57,-5.44,-0.15,0.14,-0.08,-96.00,-2.00,-40.009226.00,-8.69,-0.11,-5.47,-0.08,0.07,-0.15,-96.00,-2.00,-40.009241.00,-8.27,-0.98,-4.92,0.05,0.00,-0.33,-96.00,-2.00,-40.009253.00,-8.27,-0.98,-4.92,0.05,0.00,-0.33,-96.00,-2.00,-40.009264.00,-8.77,-0.10,-5.25,0.08,0.05,-0.14,-96.00,-2.00,-40.009276.00,-8.77,-0.10,-5.25,0.08,0.05,-0.14,-96.00,-2.00,-40.009290.00,-9.63,0.44,-4.41,0.16,0.02,-0.04,-94.00,1.00,-31.009302.00,-9.67,0.06,-3.14,0.19,-0.06,-0.10,-94.00,1.00,-31.009313.00,-9.67,0.06,-3.14,0.19,-0.06,-0.10,-94.00,1.00,-31.009325.00,-9.65,-1.31,-3.02,0.14,-0.04,-0.20,-94.00,1.00,-31.009337.00,-9.65,-1.31,-3.02,0.14,-0.04,-0.20,-94.00,1.00,-31.009350.00,-9.21,-2.49,-2.45,0.07,0.03,-0.10,-94.00,1.00,-31.009362.00,-9.85,-0.65,-3.55,-0.06,0.16,0.18,-94.00,1.00,-31.009373.00,-9.85,-0.65,-3.55,-0.06,0.16,0.18,-94.00,1.00,-31.009385.00,-9.43,-0.40,-3.63,-0.02,0.11,0.29,-94.00,1.00,-31.009398.00,-9.43,-0.40,-3.63,-0.02,0.11,0.29,-94.00,1.00,-31.009409.00,-9.58,-2.53,-3.05,0.03,0.01,0.24,-96.00,1.00,-40.009421.00,-9.81,-1.63,-2.46,-0.03,-0.11,0.20,-96.00,1.00,-40.009433.00,-9.81,-1.63,-2.46,-0.03,-0.11,0.20,-96.00,1.00,-40.009446.00,-9.41,-3.38,-2.43,-0.03,-0.14,0.10,-96.00,1.00,-40.009457.00,-9.41,-3.38,-2.43,-0.03,-0.14,0.10,-96.00,1.00,-40.009469.00,-8.98,-4.44,-3.54,-0.14,-0.10,0.07,-96.00,1.00,-40.009481.00,-9.28,-3.11,-2.49,-0.22,-0.21,0.05,-96.00,1.00,-40.009495.00,-9.28,-3.11,-2.49,-0.22,-0.21,0.05,-96.00,1.00,-40.009507.00,-9.17,-2.13,-3.81,-0.25,-0.21,-0.13,-96.00,1.00,-40.009518.00,-9.17,-2.13,-3.81,-0.25,-0.21,-0.13,-96.00,1.00,-40.009530.00,-8.27,-3.13,-3.82,-0.29,-0.13,-0.24,-96.00,1.00,-40.009542.00,-8.19,-1.81,-5.01,-0.39,0.12,-0.11,-100.00,-5.00,-44.009554.00,-8.19,-1.81,-5.01,-0.39,0.12,-0.11,-100.00,-5.00,-44.009566.00,-8.58,-0.27,-6.25,-0.43,0.29,0.04,-100.00,-5.00,-44.009578.00,-8.58,-0.27,-6.25,-0.43,0.29,0.04,-100.00,-5.00,-44.009592.00,-9.01,0.64,-7.37,-0.28,0.25,0.05,-100.00,-5.00,-44.009603.00,-9.07,1.76,-6.27,-0.05,0.06,-0.02,-100.00,-5.00,-44.009615.00,-9.07,1.76,-6.27,-0.05,0.06,-0.02,-100.00,-5.00,-44.009626.00,-9.11,1.29,-5.19,0.12,-0.02,-0.26,-100.00,-5.00,-44.009639.00,-9.11,1.29,-5.19,0.12,-0.02,-0.26,-100.00,-5.00,-44.009651.00,-9.22,-0.95,-4.15,0.14,-0.00,-0.34,-100.00,-5.00,-44.009663.00,-9.31,-0.83,-3.80,0.13,-0.05,-0.18,-96.00,1.00,-40.009675.00,-9.31,-0.83,-3.80,0.13,-0.05,-0.18,-96.00,1.00,-40.009688.00,-9.84,-1.29,-2.73,0.16,-0.05,-0.06,-96.00,1.00,-40.009699.00,-9.84,-1.29,-2.73,0.16,-0.05,-0.06,-96.00,1.00,-40.009711.00,-9.60,-1.36,-3.19,0.11,0.04,0.09,-96.00,1.00,-40.009722.00,-9.76,-0.58,-3.32,0.09,0.10,0.26,-96.00,1.00,-40.009735.00,-9.76,-0.58,-3.32,0.09,0.10,0.26,-96.00,1.00,-40.009747.00,-9.70,-1.46,-3.04,0.09,0.00,0.24,-96.00,1.00,-40.009759.00,-9.70,-1.46,-3.04,0.09,0.00,0.24,-96.00,1.00,-40.009771.00,-10.03,-2.25,-3.27,0.08,-0.10,0.18,-96.00,1.00,-40.009784.00,-9.52,-1.58,-1.88,0.02,-0.26,0.16,-96.00,-5.00,-40.009796.00,-9.52,-1.58,-1.88,0.02,-0.26,0.16,-96.00,-5.00,-40.009807.00,-8.70,-3.14,-4.23,-0.08,-0.20,-0.01,-96.00,-5.00,-40.009819.00,-8.70,-3.14,-4.23,-0.08,-0.20,-0.01,-96.00,-5.00,-40.009832.00,-9.08,-2.83,-2.75,-0.21,-0.15,0.03,-96.00,-5.00,-40.009844.00,-8.34,-2.64,-5.01,-0.28,-0.04,0.02,-96.00,-5.00,-40.009855.00,-8.34,-2.64,-5.01,-0.28,-0.04,0.02,-96.00,-5.00,-40.009867.00,-8.71,-2.31,-4.11,-0.31,0.02,0.06,-96.00,-5.00,-40.009881.00,-8.71,-2.31,-4.11,-0.31,0.02,0.06,-96.00,-5.00,-40.009893.00,-8.84,-0.62,-5.54,-0.29,0.02,-0.10,-96.00,-5.00,-40.009904.00,-8.68,-1.89,-5.10,-0.14,-0.05,-0.36,-96.00,-2.00,-44.009916.00,-8.68,-1.89,-5.10,-0.14,-0.05,-0.36,-96.00,-2.00,-44.009929.00,-8.12,-1.49,-5.75,-0.07,-0.02,-0.33,-96.00,-2.00,-44.009940.00,-8.12,-1.49,-5.75,-0.07,-0.02,-0.33,-96.00,-2.00,-44.009952.00,-8.42,-2.00,-4.79,-0.04,0.04,-0.23,-96.00,-2.00,-44.009964.00,-8.91,-0.04,-4.71,-0.08,0.19,-0.01,-96.00,-2.00,-44.009977.00,-8.91,-0.04,-4.71,-0.08,0.19,-0.01,-96.00,-2.00,-44.009988.00,-9.29,0.98,-5.01,-0.04,0.18,-0.01,-96.00,-2.00,-44.0010000.00,-9.29,0.98,-5.01,-0.04,0.18,-0.01,-96.00,-2.00,-44.0010012.00,-9.52,0.78,-4.33,0.09,0.04,-0.10,-96.00,-2.00,-44.0010025.00,-9.87,0.54,-3.38,0.13,-0.03,-0.14,-96.00,-2.00,-44.0010037.00,-9.87,0.54,-3.38,0.13,-0.03,-0.14,-96.00,-2.00,-44.0010049.00,-9.77,-0.87,-3.31,0.11,-0.04,-0.24,-94.00,-2.00,-40.0010061.00,-9.77,-0.87,-3.31,0.11,-0.04,-0.24,-94.00,-2.00,-40.0010074.00,-9.77,-1.18,-2.38,0.07,-0.01,-0.00,-94.00,-2.00,-40.0010086.00,-8.89,-2.55,-4.01,-0.00,0.10,0.16,-94.00,-2.00,-40.0010098.00,-8.89,-2.55,-4.01,-0.00,0.10,0.16,-94.00,-2.00,-40.0010110.00,-9.35,-2.26,-3.53,-0.04,0.05,0.19,-94.00,-2.00,-40.0010123.00,-9.42,-2.00,-2.90,-0.05,-0.10,0.21,-94.00,-2.00,-40.0010134.00,-9.42,-2.00,-2.90,-0.05,-0.10,0.21,-94.00,-2.00,-40.0010146.00,-8.76,-3.90,-1.94,-0.06,-0.21,0.17,-94.00,-2.00,-40.0010158.00,-8.76,-3.90,-1.94,-0.06,-0.21,0.17,-94.00,-2.00,-40.0010171.00,-8.98,-3.31,-4.03,-0.14,-0.19,0.13,-94.00,-5.00,-44.0010183.00,-9.06,-4.22,-2.54,-0.22,-0.16,0.06,-94.00,-5.00,-44.0010194.00,-9.06,-4.22,-2.54,-0.22,-0.16,0.06,-94.00,-5.00,-44.0010206.00,-8.80,-2.73,-3.76,-0.32,-0.02,0.06,-94.00,-5.00,-44.0010219.00,-8.80,-2.73,-3.76,-0.32,-0.02,0.06,-94.00,-5.00,-44.0010231.00,-9.03,-1.48,-4.18,-0.36,0.10,-0.07,-94.00,-5.00,-44.0010242.00,-9.03,-1.48,-4.18,-0.36,0.10,-0.07,-94.00,-5.00,-44.0010254.00,-9.08,-1.73,-5.32,-0.26,0.09,-0.25,-94.00,-5.00,-44.0010267.00,-8.42,-0.99,-5.98,-0.12,0.06,-0.28,-94.00,-5.00,-44.0010279.00,-8.42,-0.99,-5.98,-0.12,0.06,-0.28,-94.00,-5.00,-44.0010291.00,-8.51,-0.02,-6.02,0.00,-0.02,-0.23,-96.00,-2.00,-35.0010302.00,-8.13,-0.84,-5.22,0.09,0.03,-0.13,-96.00,-2.00,-35.0010315.00,-8.13,-0.84,-5.22,0.09,0.03,-0.13,-96.00,-2.00,-35.0010326.00,-9.35,0.57,-4.99,0.08,0.04,-0.07,-96.00,-2.00,-35.0010338.00,-9.35,0.57,-4.99,0.08,0.04,-0.07,-96.00,-2.00,-35.0010350.00,-9.29,0.23,-3.97,0.14,0.02,-0.15,-96.00,-2.00,-35.0010363.00,-9.71,0.28,-3.30,0.15,0.01,-0.14,-96.00,-2.00,-35.0010375.00,-9.71,0.28,-3.30,0.15,0.01,-0.14,-96.00,-2.00,-35.0010386.00,-9.79,-1.67,-3.04,0.14,-0.02,-0.18,-96.00,-2.00,-35.0010398.00,-9.79,-1.67,-3.04,0.14,-0.02,-0.18,-96.00,-2.00,-35.0010411.00,-9.86,-1.13,-1.42,0.01,-0.02,0.04,-96.00,1.00,-44.0010423.00,-9.64,-2.15,-2.49,-0.08,0.10,0.20,-96.00,1.00,-44.0010434.00,-9.64,-2.15,-2.49,-0.08,0.10,0.20,-96.00,1.00,-44.0010446.00,-9.35,-2.16,-4.10,-0.11,0.05,0.28,-96.00,1.00,-44.0010458.00,-9.35,-2.16,-4.10,-0.11,0.05,0.28,-96.00,1.00,-44.0010470.00,-9.08,-2.06,-4.46,-0.09,-0.14,0.23,-96.00,1.00,-44.0010482.00,-9.66,-1.95,-3.03,-0.10,-0.26,0.10,-96.00,1.00,-44.0010494.00,-9.66,-1.95,-3.03,-0.10,-0.26,0.10,-96.00,1.00,-44.0010507.00,-8.56,-2.85,-3.60,-0.17,-0.18,0.00,-96.00,1.00,-44.0010518.00,-8.56,-2.85,-3.60,-0.17,-0.18,0.00,-96.00,1.00,-44.0010530.00,-8.79,-3.69,-3.36,-0.24,-0.14,-0.03,-96.00,1.00,-44.0010542.00,-8.79,-3.69,-3.36,-0.24,-0.14,-0.03,-96.00,1.00,-44.0010555.00,-8.57,-3.29,-3.66,-0.34,-0.03,-0.03,-94.00,1.00,-40.0010566.00,-8.53,-2.60,-4.94,-0.34,0.06,-0.12,-94.00,1.00,-40.0010578.00,-8.53,-2.60,-4.94,-0.34,0.06,-0.12,-94.00,1.00,-40.0010590.00,-9.14,-2.27,-5.00,-0.21,-0.05,-0.35,-94.00,1.00,-40.0010603.00,-9.18,-2.33,-5.10,-0.02,-0.04,-0.42,-94.00,1.00,-40.0010615.00,-9.18,-2.33,-5.10,-0.02,-0.04,-0.42,-94.00,1.00,-40.0010627.00,-8.65,-2.12,-4.67,0.05,0.05,-0.22,-94.00,1.00,-40.0010638.00,-8.65,-2.12,-4.67,0.05,0.05,-0.22,-94.00,1.00,-40.0010651.00,-9.39,0.20,-6.21,-0.12,0.16,0.09,-94.00,1.00,-40.0010663.00,-8.64,0.75,-4.76,-0.14,0.08,0.03,-96.00,1.00,-40.0010674.00,-8.64,0.75,-4.76,-0.14,0.08,0.03,-96.00,1.00,-40.0010686.00,-8.90,-0.54,-4.24,-0.06,-0.01,-0.21,-96.00,1.00,-40.0010699.00,-8.90,-0.54,-4.24,-0.06,-0.01,-0.21,-96.00,1.00,-40.0010711.00,-9.41,-0.28,-3.56,-0.07,-0.06,-0.16,-96.00,1.00,-40.0010723.00,-9.62,-0.22,-3.12,-0.08,-0.05,-0.13,-96.00,1.00,-40.0010735.00,-9.62,-0.22,-3.12,-0.08,-0.05,-0.13,-96.00,1.00,-40.0010748.00,-9.77,-1.29,-3.04,-0.00,-0.01,0.08,-96.00,1.00,-40.0010760.00,-9.77,-1.29,-3.04,-0.00,-0.01,0.08,-96.00,1.00,-40.0010775.00,-9.88,-0.80,-1.88,0.08,-0.08,0.31,-96.00,1.00,-40.0010787.00,-9.50,-2.25,-2.55,0.06,-0.09,0.14,-96.00,4.00,-44.0010800.00,-9.50,-2.25,-2.55,0.06,-0.09,0.14,-96.00,4.00,-44.0010812.00,-9.83,-1.94,-1.67,-0.10,-0.07,0.15,-96.00,4.00,-44.0010823.00,-10.13,-3.20,-2.46,-0.22,-0.02,0.02,-96.00,4.00,-44.0010834.00,-10.13,-3.20,-2.46,-0.22,-0.02,0.02,-96.00,4.00,-44.0010847.00,-9.56,-3.25,-1.23,-0.28,-0.11,0.15,-96.00,4.00,-44.0010859.00,-9.56,-3.25,-1.23,-0.28,-0.11,0.15,-96.00,4.00,-44.0010870.00,-8.38,-4.83,-2.96,-0.37,-0.08,0.14,-96.00,4.00,-44.0010882.00,-8.38,-4.83,-2.96,-0.37,-0.08,0.14,-96.00,4.00,-44.0010898.00,-8.30,-4.42,-3.32,-0.44,-0.09,0.06,-96.00,4.00,-44.0010909.00,-8.07,-2.43,-4.75,-0.46,0.00,-0.15,-96.00,-5.00,-44.0010920.00,-8.07,-2.43,-4.75,-0.46,0.00,-0.15,-96.00,-5.00,-44.0010932.00,-8.95,-1.86,-5.21,-0.40,0.08,-0.35,-96.00,-5.00,-44.0010945.00,-8.42,-1.54,-4.81,-0.28,0.05,-0.46,-96.00,-5.00,-44.0010956.00,-8.42,-1.54,-4.81,-0.28,0.05,-0.46,-96.00,-5.00,-44.0010968.00,-9.11,-0.92,-5.51,-0.08,0.01,-0.32,-96.00,-5.00,-44.0010980.00,-9.11,-0.92,-5.51,-0.08,0.01,-0.32,-96.00,-5.00,-44.0010984.00,-8.85,0.54,-6.12,-0.02,0.13,0.02,-96.00,-5.00,-44.0011063.00,-9.76,-1.58,-2.94,0.19,-0.00,-0.28,-98.00,4.00,-48.0011142.00,-9.49,-2.61,-2.87,-0.07,-0.06,0.30,-98.00,4.00,-48.0011221.00,-8.60,-4.67,-2.88,-0.32,-0.01,0.11,-98.00,1.00,-44.0011312.00,-8.70,-0.73,-4.86,0.05,0.07,-0.11,-94.00,1.00,-48.0011323.00,-8.70,-0.73,-4.86,0.05,0.07,-0.11,-94.00,1.00,-48.0011335.00,-8.95,0.84,-4.24,0.05,-0.00,0.04,-94.00,1.00,-48.0011347.00,-9.47,0.67,-4.02,0.10,-0.02,-0.03,-94.00,1.00,-48.0011360.00,-9.47,0.67,-4.02,0.10,-0.02,-0.03,-94.00,1.00,-48.0011371.00,-9.46,0.57,-3.31,0.14,-0.07,-0.09,-94.00,1.00,-48.0011383.00,-9.46,0.57,-3.31,0.14,-0.07,-0.09,-94.00,1.00,-48.0011394.00,-10.00,-0.51,-3.10,0.10,-0.04,-0.16,-94.00,1.00,-48.0011410.00,-8.78,-3.53,-2.66,0.02,0.01,-0.11,-94.00,1.00,-48.0011421.00,-8.78,-3.53,-2.66,0.02,0.01,-0.11,-94.00,1.00,-48.0011432.00,-10.63,-0.17,-1.04,0.02,-0.05,0.33,-96.00,4.00,-48.0011444.00,-10.01,-1.13,-2.27,0.03,-0.06,0.23,-96.00,4.00,-48.0011457.00,-10.01,-1.13,-2.27,0.03,-0.06,0.23,-96.00,4.00,-48.0011469.00,-9.47,-2.96,-2.56,0.02,-0.11,0.10,-96.00,4.00,-48.0011481.00,-9.47,-2.96,-2.56,0.02,-0.11,0.10,-96.00,4.00,-48.0011492.00,-9.03,-3.16,-3.92,-0.03,-0.19,0.08,-96.00,4.00,-48.0011505.00,-8.85,-4.19,-3.17,-0.07,-0.25,0.09,-96.00,4.00,-48.0011517.00,-8.85,-4.19,-3.17,-0.07,-0.25,0.09,-96.00,4.00,-48.0011529.00,-9.07,-3.00,-2.21,-0.22,-0.23,0.09,-96.00,4.00,-48.0011541.00,-9.07,-3.00,-2.21,-0.22,-0.23,0.09,-96.00,4.00,-48.0011554.00,-8.92,-3.63,-4.30,-0.36,0.02,-0.08,-98.00,1.00,-53.0011566.00,-8.40,-2.90,-4.97,-0.45,0.18,-0.15,-98.00,1.00,-53.0011578.00,-8.40,-2.90,-4.97,-0.45,0.18,-0.15,-98.00,1.00,-53.0011589.00,-8.50,-0.73,-6.89,-0.43,0.26,-0.20,-98.00,1.00,-53.0011602.00,-8.50,-0.73,-6.89,-0.43,0.26,-0.20,-98.00,1.00,-53.0011614.00,-8.15,-0.26,-5.23,-0.22,0.03,-0.33,-98.00,1.00,-53.0011626.00,-9.35,-1.33,-5.12,0.00,-0.09,-0.43,-98.00,1.00,-53.0011638.00,-9.35,-1.33,-5.12,0.00,-0.09,-0.43,-98.00,1.00,-53.0011651.00,-9.02,0.17,-4.83,0.03,-0.10,-0.31,-98.00,1.00,-53.0011662.00,-9.02,0.17,-4.83,0.03,-0.10,-0.31,-98.00,1.00,-53.0011674.00,-9.25,0.68,-4.70,0.07,-0.05,-0.24,-96.00,4.00,-48.0011686.00,-9.65,1.32,-4.30,0.02,-0.05,-0.19,-96.00,4.00,-48.0011699.00,-9.65,1.32,-4.30,0.02,-0.05,-0.19,-96.00,4.00,-48.0011710.00,-9.78,1.03,-2.07,0.03,-0.12,-0.26,-96.00,4.00,-48.0011724.00,-9.61,-1.70,-2.49,0.01,-0.05,-0.42,-96.00,4.00,-48.0011735.00,-9.61,-1.70,-2.49,0.01,-0.05,-0.42,-96.00,4.00,-48.0011749.00,-9.27,-2.74,-2.69,-0.07,0.07,-0.11,-96.00,4.00,-48.0011760.00,-9.27,-2.74,-2.69,-0.07,0.07,-0.11,-96.00,4.00,-48.0011772.00,-9.12,-2.45,-4.26,-0.18,0.22,0.29,-96.00,4.00,-48.0011784.00,-9.57,-3.46,-3.58,-0.16,0.14,0.32,-96.00,4.00,-53.0011798.00,-9.57,-3.46,-3.58,-0.16,0.14,0.32,-96.00,4.00,-53.0011810.00,-8.86,-2.09,-4.04,-0.14,-0.10,0.32,-96.00,4.00,-53.0011822.00,-8.86,-2.09,-4.04,-0.14,-0.10,0.32,-96.00,4.00,-53.0011833.00,-8.81,-3.74,-3.72,-0.09,-0.25,0.20,-96.00,4.00,-53.0011847.00,-8.61,-4.12,-3.11,-0.16,-0.28,0.18,-96.00,4.00,-53.0011858.00,-8.61,-4.12,-3.11,-0.16,-0.28,0.18,-96.00,4.00,-53.0011870.00,-8.48,-2.85,-4.21,-0.26,-0.15,0.19,-96.00,4.00,-53.0011881.00,-8.48,-2.85,-4.21,-0.26,-0.15,0.19,-96.00,4.00,-53.0011895.00,-8.55,-1.08,-3.94,-0.36,-0.04,0.04,-96.00,4.00,-53.0011906.00,-8.41,-1.69,-5.05,-0.36,0.16,-0.28,-96.00,4.00,-53.0011918.00,-8.41,-1.69,-5.05,-0.36,0.16,-0.28,-96.00,4.00,-53.0011930.00,-9.39,-3.17,-4.42,-0.36,0.18,-0.48,-96.00,7.00,-53.0011943.00,-9.39,-3.17,-4.42,-0.36,0.18,-0.48,-96.00,7.00,-53.0011955.00,-8.86,-1.50,-6.45,-0.19,0.11,-0.38,-96.00,7.00,-53.0011966.00,-8.70,0.29,-5.29,-0.03,0.03,-0.11,-96.00,7.00,-53.0011978.00,-8.70,0.29,-5.29,-0.03,0.03,-0.11,-96.00,7.00,-53.0011991.00,-8.63,0.62,-5.27,0.06,-0.00,-0.05,-96.00,7.00,-53.0012003.00,-8.63,0.62,-5.27,0.06,-0.00,-0.05,-96.00,7.00,-53.0012015.00,-9.20,1.35,-4.37,0.13,-0.03,-0.18,-96.00,7.00,-53.0012026.00,-9.18,0.44,-2.74,0.16,-0.00,-0.20,-96.00,7.00,-53.0012039.00,-9.18,0.44,-2.74,0.16,-0.00,-0.20,-96.00,7.00,-53.0012050.00,-10.00,-1.02,-3.35,0.11,0.05,-0.17,-98.00,11.00,-44.0012061.00,-10.00,-1.02,-3.35,0.11,0.05,-0.17,-98.00,11.00,-44.0012073.00,-10.17,-1.89,-1.37,0.10,-0.00,0.10,-98.00,11.00,-44.0012086.00,-9.85,-2.20,-2.04,0.03,-0.01,0.25,-98.00,11.00,-44.0012098.00,-9.85,-2.20,-2.04,0.03,-0.01,0.25,-98.00,11.00,-44.0012110.00,-9.85,-1.84,-1.53,-0.01,-0.00,0.24,-98.00,11.00,-44.0012122.00,-9.85,-1.84,-1.53,-0.01,-0.00,0.24,-98.00,11.00,-44.0012135.00,-9.49,-3.04,-1.61,0.00,-0.13,0.11,-98.00,11.00,-44.0012146.00,-8.97,-4.28,-3.13,-0.03,-0.17,0.13,-98.00,11.00,-44.0012159.00,-8.97,-4.28,-3.13,-0.03,-0.17,0.13,-98.00,11.00,-44.0012171.00,-8.52,-3.51,-3.29,-0.15,-0.26,0.15,-96.00,7.00,-53.0012184.00,-8.52,-3.51,-3.29,-0.15,-0.26,0.15,-96.00,7.00,-53.0012194.00,-8.36,-3.66,-3.84,-0.25,-0.18,0.16,-96.00,7.00,-53.0012206.00,-9.01,-2.18,-4.37,-0.36,0.01,0.08,-96.00,7.00,-53.0012217.00,-9.01,-2.18,-4.37,-0.36,0.01,0.08,-96.00,7.00,-53.0012230.00,-8.82,-3.57,-3.40,-0.29,0.09,-0.25,-96.00,7.00,-53.0012241.00,-8.82,-3.57,-3.40,-0.29,0.09,-0.25,-96.00,7.00,-53.0012253.00,-9.06,-1.25,-4.62,-0.20,0.17,-0.33,-96.00,7.00,-53.0012265.00,-9.23,-0.49,-3.84,-0.02,0.14,-0.26,-96.00,7.00,-53.0012278.00,-9.23,-0.49,-3.84,-0.02,0.14,-0.26,-96.00,7.00,-53.0012290.00,-9.18,0.78,-6.19,0.05,0.12,-0.07,-98.00,7.00,-53.0012301.00,-9.18,0.78,-6.19,0.05,0.12,-0.07,-98.00,7.00,-53.0012315.00,-9.29,0.55,-4.64,0.03,0.01,0.01,-98.00,7.00,-53.0012328.00,-9.87,1.09,-3.35,-0.05,-0.05,-0.03,-98.00,7.00,-53.0012339.00,-9.87,1.09,-3.35,-0.05,-0.05,-0.03,-98.00,7.00,-53.0012351.00,-9.90,1.05,-1.77,-0.05,-0.02,-0.19,-98.00,7.00,-53.0012363.00,-9.90,1.05,-1.77,-0.05,-0.02,-0.19,-98.00,7.00,-53.0012376.00,-9.27,-2.67,-3.94,-0.06,0.11,-0.36,-98.00,7.00,-53.0012388.00,-9.79,-2.10,-3.09,-0.10,0.10,0.05,-98.00,7.00,-53.0012399.00,-9.79,-2.10,-3.09,-0.10,0.10,0.05,-98.00,7.00,-53.0012411.00,-10.04,-0.62,-3.49,-0.11,0.08,0.27,-98.00,7.00,-53.0012424.00,-10.04,-0.62,-3.49,-0.11,0.08,0.27,-98.00,7.00,-53.0012436.00,-8.99,-3.56,-2.68,-0.01,-0.07,0.15,-96.00,11.00,-53.0012448.00,-9.14,-4.37,-3.85,-0.03,-0.23,0.11,-96.00,11.00,-53.0012460.00,-9.14,-4.37,-3.85,-0.03,-0.23,0.11,-96.00,11.00,-53.0012473.00,-8.99,-5.06,-3.02,-0.07,-0.36,0.16,-96.00,11.00,-53.0012484.00,-8.99,-5.06,-3.02,-0.07,-0.36,0.16,-96.00,11.00,-53.0012496.00,-8.82,-4.36,-3.49,-0.21,-0.38,0.20,-96.00,11.00,-53.0012507.00,-8.52,-2.94,-3.10,-0.36,-0.20,0.11,-96.00,11.00,-53.0012520.00,-8.52,-2.94,-3.10,-0.36,-0.20,0.11,-96.00,11.00,-53.0012532.00,-8.77,-1.81,-5.49,-0.40,0.03,-0.13,-96.00,11.00,-53.0012543.00,-8.77,-1.81,-5.49,-0.40,0.03,-0.13,-96.00,11.00,-53.0012555.00,-9.14,-1.66,-5.06,-0.33,0.15,-0.37,-98.00,7.00,-57.0012568.00,-9.09,0.04,-6.93,-0.28,0.19,-0.52,-98.00,7.00,-57.0012579.00,-9.09,0.04,-6.93,-0.28,0.19,-0.52,-98.00,7.00,-57.0012590.00,-9.19,0.13,-6.21,0.01,0.09,-0.26,-98.00,7.00,-57.0012602.00,-9.19,0.13,-6.21,0.01,0.09,-0.26,-98.00,7.00,-57.0012615.00,-8.61,0.71,-4.59,0.20,0.01,-0.02,-98.00,7.00,-57.0012626.00,-9.30,0.85,-3.73,0.12,-0.06,-0.09,-98.00,7.00,-57.0012638.00,-9.30,0.85,-3.73,0.12,-0.06,-0.09,-98.00,7.00,-57.0012650.00,-9.50,0.60,-3.42,0.04,-0.01,-0.15,-98.00,7.00,-57.0012663.00,-9.50,0.60,-3.42,0.04,-0.01,-0.15,-98.00,7.00,-57.0012675.00,-9.78,-0.86,-3.29,0.01,0.07,-0.18,-96.00,14.00,-57.0012686.00,-9.83,-1.47,-2.19,-0.01,0.04,-0.08,-96.00,14.00,-57.0012698.00,-9.83,-1.47,-2.19,-0.01,0.04,-0.08,-96.00,14.00,-57.0012711.00,-10.44,-1.01,-1.27,-0.03,-0.06,0.21,-96.00,14.00,-57.0012725.00,-9.03,-3.97,-3.33,-0.10,-0.03,0.26,-96.00,14.00,-57.0012737.00,-9.03,-3.97,-3.33,-0.10,-0.03,0.26,-96.00,14.00,-57.0012748.00,-8.98,-2.85,-2.51,-0.16,-0.10,0.44,-96.00,14.00,-57.0012761.00,-8.98,-2.85,-2.51,-0.16,-0.10,0.44,-96.00,14.00,-57.0012772.00,-9.67,-1.55,-2.38,-0.26,-0.05,0.29,-96.00,14.00,-57.0012784.00,-9.67,-1.55,-2.38,-0.26,-0.05,0.29,-96.00,14.00,-57.0012796.00,-8.61,-3.79,-4.13,-0.26,-0.04,0.03,-100.00,4.00,-61.0012809.00,-8.21,-2.48,-4.47,-0.22,-0.17,-0.14,-100.00,4.00,-61.0012821.00,-8.21,-2.48,-4.47,-0.22,-0.17,-0.14,-100.00,4.00,-61.0012832.00,-8.50,-3.71,-3.71,-0.19,-0.22,-0.49,-100.00,4.00,-61.0012844.00,-8.50,-3.71,-3.71,-0.19,-0.22,-0.49,-100.00,4.00,-61.0012857.00,-8.99,-1.24,-4.30,-0.12,-0.09,-0.29,-100.00,4.00,-61.0012869.00,-9.41,-1.53,-5.62,0.07,-0.07,-0.25,-100.00,4.00,-61.0012881.00,-9.41,-1.53,-5.62,0.07,-0.07,-0.25,-100.00,4.00,-61.0012893.00,-16.07,-1.05,1.43,0.23,-0.24,-0.25,-100.00,4.00,-61.0012906.00,-17.69,-2.86,2.29,-0.54,1.30,-0.36,-100.00,4.00,-61.0012918.00,-17.69,-2.86,2.29,-0.54,1.30,-0.36,-100.00,4.00,-61.0012929.00,-10.73,2.42,-8.13,-1.62,3.13,-0.12,-100.00,7.00,-53.0012940.00,-10.73,2.42,-8.13,-1.62,3.13,-0.12,-100.00,7.00,-53.0012954.00,-6.14,3.90,-12.93,-0.97,2.77,-0.43,-100.00,7.00,-53.0012965.00,-6.14,3.90,-12.93,-0.97,2.77,-0.43,-100.00,7.00,-53.0012977.00,-4.42,1.19,-8.21,0.02,1.36,-0.68,-100.00,7.00,-53.0012989.00,-2.87,0.15,-7.17,0.41,0.83,-0.21,-100.00,7.00,-53.0013002.00,-2.87,0.15,-7.17,0.41,0.83,-0.21,-100.00,7.00,-53.0013013.00,-2.85,0.10,-6.87,0.58,0.46,0.39,-100.00,7.00,-53.0013025.00,-2.85,0.10,-6.87,0.58,0.46,0.39,-100.00,7.00,-53.0013036.00,-4.33,0.11,-6.52,0.75,0.10,0.86,-100.00,7.00,-53.0013050.00,-6.25,0.12,-5.61,0.82,-0.19,1.13,-94.00,14.00,-27.0013061.00,-6.25,0.12,-5.61,0.82,-0.19,1.13,-94.00,14.00,-27.0013073.00,-7.58,0.25,-5.47,0.84,-0.21,1.22,-94.00,14.00,-27.0013084.00,-7.58,0.25,-5.47,0.84,-0.21,1.22,-94.00,14.00,-27.0013097.00,-7.84,-0.51,-5.17,0.87,-0.11,1.15,-94.00,14.00,-27.0013109.00,-8.05,-1.64,-5.47,0.87,-0.03,1.14,-94.00,14.00,-27.0013121.00,-8.05,-1.64,-5.47,0.87,-0.03,1.14,-94.00,14.00,-27.0013133.00,-9.34,-2.10,-4.43,0.82,-0.01,1.23,-94.00,14.00,-27.0013146.00,-9.84,-1.91,-3.62,0.66,0.25,1.33,-94.00,14.00,-27.0013157.00,-9.84,-1.91,-3.62,0.66,0.25,1.33,-94.00,14.00,-27.0013169.00,-8.38,-1.28,-4.45,0.46,0.67,1.35,-94.00,-5.00,-27.0013181.00,-8.38,-1.28,-4.45,0.46,0.67,1.35,-94.00,-5.00,-27.0013194.00,-6.74,-0.14,-7.23,0.39,0.79,1.28,-94.00,-5.00,-27.0013206.00,-7.90,-0.40,-7.51,0.73,0.31,1.16,-94.00,-5.00,-27.0013218.00,-7.90,-0.40,-7.51,0.73,0.31,1.16,-94.00,-5.00,-27.0013230.00,-10.83,-1.40,-4.38,0.99,-0.24,0.91,-94.00,-5.00,-27.0013243.00,-10.83,-1.40,-4.38,0.99,-0.24,0.91,-94.00,-5.00,-27.0013255.00,-11.61,-2.35,-2.35,0.82,-0.12,0.61,-94.00,-5.00,-27.0013267.00,-9.44,-2.73,-3.99,0.42,0.42,0.49,-94.00,-5.00,-27.0013279.00,-9.44,-2.73,-3.99,0.42,0.42,0.49,-94.00,-5.00,-27.0013294.00,-7.79,-1.10,-5.60,0.20,0.64,0.64,-90.00,-18.00,-14.0013306.00,-7.46,0.25,-6.74,0.30,0.54,0.71,-90.00,-18.00,-14.0013317.00,-7.46,0.25,-6.74,0.30,0.54,0.71,-90.00,-18.00,-14.0013329.00,-8.36,0.42,-6.91,0.61,0.17,0.55,-90.00,-18.00,-14.0013342.00,-8.36,0.42,-6.91,0.61,0.17,0.55,-90.00,-18.00,-14.0013354.00,-10.09,-0.63,-4.11,0.88,-0.28,0.17,-90.00,-18.00,-14.0013365.00,-10.09,-0.63,-4.11,0.88,-0.28,0.17,-90.00,-18.00,-14.0013377.00,-9.80,-2.87,-2.40,0.79,-0.22,-0.15,-90.00,-18.00,-14.0013391.00,-8.25,-3.36,-3.37,0.41,0.19,-0.04,-90.00,-18.00,-14.0013402.00,-8.25,-3.36,-3.37,0.41,0.19,-0.04,-90.00,-18.00,-14.0013414.00,-7.17,-1.17,-5.48,0.11,0.33,0.28,-90.00,-18.00,-14.0013426.00,-7.61,0.31,-6.04,0.13,0.15,0.39,-90.00,-18.00,-14.0013430.00,-7.61,0.31,-6.04,0.13,0.15,0.39,-90.00,-12.00,-14.0013509.00,-8.88,-1.55,-2.81,0.57,-0.44,-0.03,-90.00,-12.00,-14.0013588.00,-10.23,-0.32,-6.23,0.22,-0.19,0.24,-92.00,-18.00,-14.0013667.00,-9.78,-0.03,-5.74,0.20,-0.27,0.05,-90.00,-18.00,-9.0013758.00,-8.34,-1.17,-5.11,0.02,-0.26,-0.09,-90.00,-18.00,-9.0013769.00,-8.57,-0.66,-5.45,0.09,-0.19,0.04,-90.00,-18.00,-9.0013781.00,-8.57,-0.66,-5.45,0.09,-0.19,0.04,-90.00,-18.00,-9.0013793.00,-8.95,-0.08,-5.23,0.14,-0.22,-0.00,-90.00,-18.00,-9.0013806.00,-8.95,-0.08,-5.23,0.14,-0.22,-0.00,-90.00,-18.00,-9.0013817.00,-8.53,-0.67,-5.39,0.19,-0.28,-0.17,-94.00,-15.00,-18.0013829.00,-8.59,-0.82,-5.05,0.25,-0.39,-0.21,-94.00,-15.00,-18.0013841.00,-8.59,-0.82,-5.05,0.25,-0.39,-0.21,-94.00,-15.00,-18.0013856.00,-8.47,-0.77,-5.17,0.29,-0.46,-0.20,-94.00,-15.00,-18.0013868.00,-8.51,-0.56,-5.36,0.41,-0.56,-0.19,-94.00,-15.00,-18.0013880.00,-8.51,-0.56,-5.36,0.41,-0.56,-0.19,-94.00,-15.00,-18.0013891.00,-11.13,-0.31,-2.33,0.50,-0.65,-0.26,-94.00,-15.00,-18.0013905.00,-11.13,-0.31,-2.33,0.50,-0.65,-0.26,-94.00,-15.00,-18.0013916.00,-9.19,-2.33,-2.61,0.36,-0.37,-0.42,-94.00,-15.00,-18.0013928.00,-9.24,-2.76,-3.56,0.17,-0.21,-0.29,-96.00,-5.00,-27.0013940.00,-9.24,-2.76,-3.56,0.17,-0.21,-0.29,-96.00,-5.00,-27.0013954.00,-9.33,-2.32,-4.26,-0.02,-0.23,-0.22,-96.00,-5.00,-27.0013966.00,-9.33,-2.32,-4.26,-0.02,-0.23,-0.22,-96.00,-5.00,-27.0013979.00,-9.07,-2.30,-3.18,-0.34,-0.43,-0.35,-96.00,-5.00,-27.0013991.00,-8.48,-2.75,-3.58,-0.49,-0.43,-0.46,-96.00,-5.00,-27.0014004.00,-8.48,-2.75,-3.58,-0.49,-0.43,-0.46,-96.00,-5.00,-27.0014016.00,-9.19,-2.35,-2.55,-0.56,-0.42,-0.46,-96.00,-5.00,-27.0014028.00,-8.58,-3.51,-2.68,-0.70,0.09,-0.41,-96.00,-5.00,-27.0014040.00,-8.58,-3.51,-2.68,-0.70,0.09,-0.41,-96.00,-5.00,-27.0014054.00,-8.55,-1.18,-6.73,-0.86,0.45,-0.31,-96.00,-2.00,-35.0014066.00,-8.55,-1.18,-6.73,-0.86,0.45,-0.31,-96.00,-2.00,-35.0014077.00,-9.05,1.17,-7.55,-0.43,0.36,0.06,-96.00,-2.00,-35.0014090.00,-9.38,1.26,-6.63,0.17,0.07,0.04,-96.00,-2.00,-35.0014102.00,-9.38,1.26,-6.63,0.17,0.07,0.04,-96.00,-2.00,-35.0014113.00,-9.30,-0.65,-4.09,0.38,-0.19,-0.25,-96.00,-2.00,-35.0014125.00,-9.30,-0.65,-4.09,0.38,-0.19,-0.25,-96.00,-2.00,-35.0014137.00,-9.45,-0.71,-3.32,0.20,-0.24,-0.30,-96.00,-2.00,-35.0014151.00,-9.06,-1.71,-3.18,0.14,-0.16,-0.28,-96.00,-2.00,-35.0014163.00,-9.06,-1.71,-3.18,0.14,-0.16,-0.28,-96.00,-2.00,-35.0014173.00,-9.56,-1.82,-3.71,0.15,0.02,0.00,-96.00,-2.00,-35.0014187.00,-9.26,-2.96,-4.25,0.09,0.03,0.13,-96.00,-2.00,-35.0014198.00,-9.26,-2.96,-4.25,0.09,0.03,0.13,-96.00,-2.00,-35.0014210.00,-9.82,-0.63,-2.87,0.16,-0.03,0.45,-96.00,-2.00,-35.0014221.00,-9.82,-0.63,-2.87,0.16,-0.03,0.45,-96.00,-2.00,-35.0014233.00,-9.29,-1.49,-2.40,0.17,-0.18,0.36,-96.00,-2.00,-35.0014246.00,-9.29,-1.49,-2.40,0.17,-0.18,0.36,-96.00,-2.00,-35.0014258.00,-8.81,-3.42,-3.79,0.12,-0.19,0.21,-96.00,-2.00,-35.0014270.00,-8.50,-4.49,-3.68,-0.01,-0.16,0.19,-96.00,-2.00,-35.0014283.00,-8.50,-4.49,-3.68,-0.01,-0.16,0.19,-96.00,-2.00,-35.0014295.00,-9.01,-3.12,-3.51,-0.19,-0.14,0.18,-96.00,-2.00,-35.0014307.00,-8.67,-1.93,-4.04,-0.36,0.02,0.08,-94.00,-2.00,-35.0014319.00,-8.67,-1.93,-4.04,-0.36,0.02,0.08,-94.00,-2.00,-35.0014332.00,-8.45,-1.43,-6.00,-0.39,0.13,-0.08,-94.00,-2.00,-35.0014344.00,-8.45,-1.43,-6.00,-0.39,0.13,-0.08,-94.00,-2.00,-35.0014356.00,-8.71,-0.81,-6.06,-0.24,0.09,-0.21,-94.00,-2.00,-35.0014367.00,-8.46,-1.09,-6.00,-0.05,0.04,-0.24,-94.00,-2.00,-35.0014380.00,-8.46,-1.09,-6.00,-0.05,0.04,-0.24,-94.00,-2.00,-35.0014392.00,-9.27,0.12,-6.20,0.06,0.02,-0.09,-94.00,-2.00,-35.0014404.00,-9.27,0.12,-6.20,0.06,0.02,-0.09,-94.00,-2.00,-35.0014415.00,-9.09,0.45,-4.52,0.15,-0.05,-0.07,-94.00,-2.00,-35.0014428.00,-9.89,0.52,-4.52,0.09,0.04,-0.10,-94.00,-8.00,-40.0014440.00,-9.89,0.52,-4.52,0.09,0.04,-0.10,-94.00,-8.00,-40.0014452.00,-9.82,0.67,-3.00,0.02,0.04,-0.10,-94.00,-8.00,-40.0014463.00,-9.82,0.67,-3.00,0.02,0.04,-0.10,-94.00,-8.00,-40.0014476.00,-9.42,-1.64,-2.71,0.04,0.09,-0.19,-94.00,-8.00,-40.0014488.00,-9.39,-2.04,-3.21,0.03,0.14,0.08,-94.00,-8.00,-40.0014500.00,-9.39,-2.04,-3.21,0.03,0.14,0.08,-94.00,-8.00,-40.0014511.00,-9.82,-2.18,-2.86,0.02,0.11,0.27,-94.00,-8.00,-40.0014523.00,-9.82,-2.18,-2.86,0.02,0.11,0.27,-94.00,-8.00,-40.0014536.00,-10.07,0.45,-3.66,0.03,0.00,0.39,-94.00,-8.00,-40.0014548.00,-9.56,-1.31,-2.66,0.05,-0.18,0.24,-92.00,-2.00,-35.0014559.00,-9.56,-1.31,-2.66,0.05,-0.18,0.24,-92.00,-2.00,-35.0014571.00,-8.39,-4.16,-4.00,0.02,-0.31,0.13,-92.00,-2.00,-35.0014584.00,-8.39,-4.16,-4.00,0.02,-0.31,0.13,-92.00,-2.00,-35.0014596.00,-9.00,-3.82,-2.97,-0.09,-0.44,0.06,-92.00,-2.00,-35.0014608.00,-8.52,-2.51,-4.16,-0.16,-0.46,-0.18,-92.00,-2.00,-35.0014621.00,-8.52,-2.51,-4.16,-0.16,-0.46,-0.18,-92.00,-2.00,-35.0014632.00,-8.68,-2.55,-3.43,-0.25,-0.22,-0.37,-92.00,-2.00,-35.0014644.00,-8.68,-2.55,-3.43,-0.25,-0.22,-0.37,-92.00,-2.00,-35.0014655.00,-8.07,-2.17,-4.54,-0.30,0.10,-0.37,-92.00,-2.00,-35.0014668.00,-8.89,-0.64,-6.12,-0.28,0.35,-0.28,-94.00,-2.00,-40.0014679.00,-8.89,-0.64,-6.12,-0.28,0.35,-0.28,-94.00,-2.00,-40.0014691.00,-8.73,0.04,-6.93,-0.17,0.36,-0.09,-94.00,-2.00,-40.0014703.00,-8.73,0.04,-6.93,-0.17,0.36,-0.09,-94.00,-2.00,-40.0014716.00,-9.18,1.13,-5.13,0.01,0.08,0.06,-94.00,-2.00,-40.0014727.00,-9.11,-0.04,-4.36,0.17,-0.03,-0.06,-94.00,-2.00,-40.0014739.00,-9.11,-0.04,-4.36,0.17,-0.03,-0.06,-94.00,-2.00,-40.0014751.00,-10.06,0.95,-3.12,0.13,0.02,-0.11,-94.00,-2.00,-40.0014764.00,-10.06,0.95,-3.12,0.13,0.02,-0.11,-94.00,-2.00,-40.0014776.00,-9.71,-1.56,-3.52,0.10,0.11,-0.22,-94.00,-2.00,-40.0014787.00,-9.52,-2.21,-2.58,0.10,0.06,0.04,-94.00,-2.00,-40.0014799.00,-9.52,-2.21,-2.58,0.10,0.06,0.04,-94.00,-2.00,-40.0014812.00,-9.56,-3.12,-2.98,0.06,0.03,0.21,-96.00,1.00,-40.0014824.00,-9.56,-3.12,-2.98,0.06,0.03,0.21,-96.00,1.00,-40.0014836.00,-9.79,-1.91,-2.59,-0.01,-0.03,0.33,-96.00,1.00,-40.0014847.00,-9.24,-3.11,-4.61,-0.04,-0.03,0.30,-96.00,1.00,-40.0014861.00,-9.24,-3.11,-4.61,-0.04,-0.03,0.30,-96.00,1.00,-40.0014872.00,-8.65,-3.97,-3.34,-0.10,-0.09,0.31,-96.00,1.00,-40.0014884.00,-8.65,-3.97,-3.34,-0.10,-0.09,0.31,-96.00,1.00,-40.0014896.00,-8.91,-2.54,-3.48,-0.12,-0.20,0.26,-96.00,1.00,-40.0014909.00,-9.29,-2.81,-2.80,-0.13,-0.21,0.08,-96.00,1.00,-40.0014921.00,-9.29,-2.81,-2.80,-0.13,-0.21,0.08,-96.00,1.00,-40.0014933.00,-8.86,-2.83,-3.46,-0.25,-0.11,-0.05,-94.00,-15.00,-35.0014945.00,-8.86,-2.83,-3.46,-0.25,-0.11,-0.05,-94.00,-15.00,-35.0014958.00,-8.91,-3.39,-3.34,-0.33,-0.00,-0.10,-94.00,-15.00,-35.0014969.00,-7.94,-1.47,-5.01,-0.38,0.21,-0.04,-94.00,-15.00,-35.0014981.00,-7.94,-1.47,-5.01,-0.38,0.21,-0.04,-94.00,-15.00,-35.0014993.00,-8.87,0.15,-7.34,-0.37,0.23,-0.09,-94.00,-15.00,-35.0015006.00,-8.87,0.15,-7.34,-0.37,0.23,-0.09,-94.00,-15.00,-35.0015016.00,-8.29,-0.01,-6.02,-0.14,0.14,-0.09,-94.00,-15.00,-35.0015028.00,-8.88,1.39,-5.47,0.10,-0.01,-0.06,-94.00,-15.00,-35.0015039.00,-8.88,1.39,-5.47,0.10,-0.01,-0.06,-94.00,-15.00,-35.0015052.00,-9.30,0.80,-4.75,0.27,-0.08,-0.14,-96.00,-5.00,-48.0015063.00,-9.30,0.80,-4.75,0.27,-0.08,-0.14,-96.00,-5.00,-48.0015074.00,-9.47,0.61,-3.34,0.29,-0.14,-0.27,-96.00,-5.00,-48.0015086.00,-9.47,0.61,-3.34,0.29,-0.14,-0.27,-96.00,-5.00,-48.0015099.00,-9.57,-1.38,-2.52,0.23,-0.08,-0.44,-96.00,-5.00,-48.0015111.00,-9.25,-2.78,-1.83,0.14,0.03,-0.20,-96.00,-5.00,-48.0015123.00,-9.25,-2.78,-1.83,0.14,0.03,-0.20,-96.00,-5.00,-48.0015135.00,-10.18,-0.59,-2.07,0.00,0.19,0.27,-96.00,-5.00,-48.0015148.00,-9.48,-0.99,-3.46,-0.04,0.17,0.19,-96.00,-5.00,-48.0015159.00,-9.48,-0.99,-3.46,-0.04,0.17,0.19,-96.00,-5.00,-48.0015171.00,-8.72,-3.31,-3.64,0.02,0.06,0.10,-94.00,-5.00,-35.0015182.00,-8.72,-3.31,-3.64,0.02,0.06,0.10,-94.00,-5.00,-35.0015194.00,-9.97,-0.86,-1.87,-0.03,-0.17,0.21,-94.00,-5.00,-35.0015206.00,-9.97,-0.86,-1.87,-0.03,-0.17,0.21,-94.00,-5.00,-35.0015218.00,-9.34,-3.30,-2.78,-0.04,-0.18,0.11,-94.00,-5.00,-35.0015229.00,-8.52,-5.23,-3.51,-0.15,-0.19,0.13,-94.00,-5.00,-35.0015242.00,-8.52,-5.23,-3.51,-0.15,-0.19,0.13,-94.00,-5.00,-35.0015253.00,-8.81,-3.39,-2.52,-0.33,-0.19,0.13,-94.00,-5.00,-35.0015265.00,-8.81,-3.39,-2.52,-0.33,-0.19,0.13,-94.00,-5.00,-35.0015277.00,-9.08,-2.36,-4.17,-0.49,-0.03,-0.06,-94.00,-5.00,-35.0015290.00,-8.37,-0.86,-5.53,-0.52,0.15,-0.12,-94.00,-5.00,-35.0015301.00,-8.37,-0.86,-5.53,-0.52,0.15,-0.12,-94.00,-5.00,-35.0015313.00,-8.25,0.15,-6.82,-0.31,0.19,-0.17,-96.00,-2.00,-40.0015326.00,-8.25,0.15,-6.82,-0.31,0.19,-0.17,-96.00,-2.00,-40.0015339.00,-9.21,-0.42,-7.01,-0.01,0.08,-0.21,-96.00,-2.00,-40.0015350.00,-9.22,2.04,-5.68,0.17,-0.06,-0.09,-96.00,-2.00,-40.0015362.00,-9.22,2.04,-5.68,0.17,-0.06,-0.09,-96.00,-2.00,-40.0015373.00,-9.59,0.61,-4.46,0.24,-0.03,-0.27,-96.00,-2.00,-40.0015386.00,-9.59,0.61,-4.46,0.24,-0.03,-0.27,-96.00,-2.00,-40.0015397.00,-9.30,-0.81,-3.85,0.21,0.03,-0.27,-96.00,-2.00,-40.0015409.00,-9.40,-1.61,-2.92,0.15,0.07,-0.11,-96.00,-2.00,-40.0015420.00,-9.40,-1.61,-2.92,0.15,0.07,-0.11,-96.00,-2.00,-40.0015433.00,-10.07,-1.93,-3.15,0.08,0.05,0.03,-94.00,-2.00,-40.0015445.00,-10.07,-1.93,-3.15,0.08,0.05,0.03,-94.00,-2.00,-40.0015456.00,-9.56,-2.33,-1.60,0.04,-0.05,0.21,-94.00,-2.00,-40.0015467.00,-9.56,-2.33,-1.60,0.04,-0.05,0.21,-94.00,-2.00,-40.0015482.00,-9.76,-1.83,-2.83,-0.05,-0.01,0.24,-94.00,-2.00,-40.0015494.00,-9.72,-1.90,-1.63,-0.02,-0.10,0.22,-94.00,-2.00,-40.0015505.00,-9.72,-1.90,-1.63,-0.02,-0.10,0.22,-94.00,-2.00,-40.0015517.00,-9.51,-3.01,-3.78,-0.03,-0.10,0.14,-94.00,-2.00,-40.0015530.00,-9.12,-1.75,-4.23,-0.10,-0.17,0.15,-94.00,-2.00,-40.0015542.00,-9.12,-1.75,-4.23,-0.10,-0.17,0.15,-94.00,-2.00,-40.0015554.00,-9.47,-2.11,-3.61,-0.09,-0.31,-0.01,-94.00,-8.00,-44.0015566.00,-9.47,-2.11,-3.61,-0.09,-0.31,-0.01,-94.00,-8.00,-44.0015579.00,-9.75,-3.92,-2.07,-0.13,-0.33,-0.19,-94.00,-8.00,-44.0015590.00,-9.29,-3.10,-2.71,-0.29,-0.17,-0.25,-94.00,-8.00,-44.0015602.00,-9.29,-3.10,-2.71,-0.29,-0.17,-0.25,-94.00,-8.00,-44.0015613.00,-8.17,-1.59,-4.49,-0.37,0.12,-0.15,-94.00,-8.00,-44.0015626.00,-8.17,-1.59,-4.49,-0.37,0.12,-0.15,-94.00,-8.00,-44.0015638.00,-8.35,-0.49,-5.78,-0.43,0.41,0.02,-94.00,-8.00,-44.0015650.00,-8.90,1.82,-6.94,-0.30,0.46,0.11,-94.00,-8.00,-44.0015661.00,-8.90,1.82,-6.94,-0.30,0.46,0.11,-94.00,-8.00,-44.0015675.00,-9.35,2.46,-6.53,0.01,0.17,-0.06,-94.00,-8.00,-44.0015686.00,-9.35,2.46,-6.53,0.01,0.17,-0.06,-94.00,-8.00,-44.0015698.00,-9.45,1.23,-4.35,0.19,-0.08,-0.31,-94.00,-8.00,-35.0015710.00,-9.66,0.01,-3.29,0.20,-0.15,-0.48,-94.00,-8.00,-35.0015723.00,-9.66,0.01,-3.29,0.20,-0.15,-0.48,-94.00,-8.00,-35.0015734.00,-9.53,-1.97,-3.88,0.14,-0.07,-0.46,-94.00,-8.00,-35.0015746.00,-9.53,-1.97,-3.88,0.14,-0.07,-0.46,-94.00,-8.00,-35.0015758.00,-10.02,-0.44,-2.83,0.04,0.10,0.07,-94.00,-8.00,-35.0015771.00,-10.04,0.44,-2.67,0.01,0.15,0.25,-94.00,-8.00,-35.0015782.00,-10.04,0.44,-2.67,0.01,0.15,0.25,-94.00,-8.00,-35.0015795.00,-8.65,-2.38,-4.56,0.07,0.09,0.11,-94.00,-8.00,-35.0015806.00,-8.65,-2.38,-4.56,0.07,0.09,0.11,-94.00,-8.00,-35.0015819.00,-8.95,-3.16,-4.52,0.08,-0.08,0.17,-94.00,-2.00,-44.0015831.00,-9.12,-3.51,-2.53,0.11,-0.24,0.24,-94.00,-2.00,-44.0015842.00,-9.12,-3.51,-2.53,0.11,-0.24,0.24,-94.00,-2.00,-44.0015853.00,-8.78,-4.77,-2.54,0.01,-0.21,0.29,-94.00,-2.00,-44.0015867.00,-8.78,-4.77,-2.54,0.01,-0.21,0.29,-94.00,-2.00,-44.0015878.00,-9.04,-2.33,-3.60,-0.17,-0.22,0.30,-94.00,-2.00,-44.0015890.00,-9.43,-3.03,-2.58,-0.27,-0.13,0.11,-94.00,-2.00,-44.0015902.00,-9.43,-3.03,-2.58,-0.27,-0.13,0.11,-94.00,-2.00,-44.0015906.00,-9.43,-3.03,-2.58,-0.27,-0.13,0.11,-94.00,-2.00,-44.0015985.00,-8.63,0.86,-6.42,-0.00,-0.02,-0.19,-96.00,-5.00,-44.0016064.00,-9.18,-0.62,-2.02,0.06,0.16,-0.34,-96.00,1.00,-44.0016143.00,-9.59,-2.71,-3.78,-0.00,-0.05,0.24,-96.00,1.00,-44.0016233.00,-9.05,-3.57,-2.78,-0.27,-0.26,-0.26,-94.00,1.00,-48.0016245.00,-9.05,-3.57,-2.78,-0.27,-0.26,-0.26,-94.00,1.00,-48.0016257.00,-8.65,-2.80,-3.55,-0.39,0.02,-0.21,-94.00,1.00,-48.0016269.00,-8.65,-2.80,-3.55,-0.39,0.02,-0.21,-94.00,1.00,-48.0016282.00,-8.99,-1.92,-5.46,-0.37,0.35,0.03,-94.00,1.00,-48.0016293.00,-9.17,2.28,-6.39,-0.31,0.46,0.34,-94.00,1.00,-48.0016305.00,-9.17,2.28,-6.39,-0.31,0.46,0.34,-94.00,1.00,-48.0016316.00,-10.02,4.11,-7.09,-0.02,0.17,0.14,-96.00,-2.00,-40.0016328.00,-10.02,4.11,-7.09,-0.02,0.17,0.14,-96.00,-2.00,-40.0016340.00,-9.40,1.35,-5.30,0.32,-0.19,-0.37,-96.00,-2.00,-40.0016352.00,-9.38,0.56,-2.00,0.41,-0.33,-0.56,-96.00,-2.00,-40.0016364.00,-9.38,0.56,-2.00,0.41,-0.33,-0.56,-96.00,-2.00,-40.0016378.00,-9.80,-1.88,-1.57,0.27,-0.12,-0.49,-96.00,-2.00,-40.0016390.00,-9.72,-1.83,-0.95,0.06,0.10,-0.04,-96.00,-2.00,-40.0016401.00,-9.72,-1.83,-0.95,0.06,0.10,-0.04,-96.00,-2.00,-40.0016413.00,-9.70,-2.95,-4.59,-0.18,0.27,0.01,-96.00,-2.00,-40.0016426.00,-9.70,-2.95,-4.59,-0.18,0.27,0.01,-96.00,-2.00,-40.0016438.00,-9.12,-3.43,-2.20,-0.14,0.15,0.13,-96.00,1.00,-48.0016449.00,-9.52,-3.22,-2.57,-0.17,0.04,0.23,-96.00,1.00,-48.0016461.00,-9.52,-3.22,-2.57,-0.17,0.04,0.23,-96.00,1.00,-48.0016474.00,-9.12,-4.81,-3.18,-0.18,-0.06,0.32,-96.00,1.00,-48.0016486.00,-9.12,-4.81,-3.18,-0.18,-0.06,0.32,-96.00,1.00,-48.0016497.00,-8.61,-3.16,-3.43,-0.29,-0.10,0.35,-96.00,1.00,-48.0016509.00,-8.64,-1.20,-4.90,-0.35,-0.05,0.11,-96.00,1.00,-48.0016522.00,-8.64,-1.20,-4.90,-0.35,-0.05,0.11,-96.00,1.00,-48.0016534.00,-8.90,-2.38,-4.09,-0.32,0.01,-0.25,-96.00,1.00,-48.0016545.00,-8.90,-2.38,-4.09,-0.32,0.01,-0.25,-96.00,1.00,-48.0016557.00,-8.75,-2.90,-2.67,-0.29,0.02,-0.35,-98.00,1.00,-48.0016570.00,-8.60,-1.82,-4.97,-0.27,0.08,-0.25,-98.00,1.00,-48.0016582.00,-8.60,-1.82,-4.97,-0.27,0.08,-0.25,-98.00,1.00,-48.0016593.00,-8.62,-0.22,-4.21,-0.20,0.10,-0.01,-98.00,1.00,-48.0016605.00,-8.62,-0.22,-4.21,-0.20,0.10,-0.01,-98.00,1.00,-48.0016618.00,-9.07,0.81,-5.35,-0.11,0.11,0.05,-98.00,1.00,-48.0016629.00,-9.07,0.81,-5.35,-0.11,0.11,0.05,-98.00,1.00,-48.0016641.00,-9.07,-0.02,-6.01,0.05,0.14,-0.01,-98.00,1.00,-48.0016652.00,-9.34,1.44,-4.98,0.21,0.07,-0.08,-98.00,1.00,-48.0016665.00,-9.34,1.44,-4.98,0.21,0.07,-0.08,-98.00,1.00,-48.0016677.00,-9.65,0.29,-3.55,0.33,-0.04,-0.28,-98.00,1.00,-48.0016688.00,-9.65,0.29,-3.55,0.33,-0.04,-0.28,-98.00,1.00,-48.0016700.00,-8.93,-2.04,-2.83,0.26,-0.03,-0.38,-96.00,1.00,-44.0016713.00,-8.84,-2.96,-3.23,0.10,0.13,-0.14,-96.00,1.00,-44.0016725.00,-8.84,-2.96,-3.23,0.10,0.13,-0.14,-96.00,1.00,-44.0016736.00,-10.55,1.54,-2.78,0.04,0.19,0.33,-96.00,1.00,-44.0016748.00,-10.55,1.54,-2.78,0.04,0.19,0.33,-96.00,1.00,-44.0016761.00,-9.20,-1.60,-4.54,0.15,0.15,0.13,-96.00,1.00,-44.0016772.00,-9.76,-1.25,-2.34,0.19,-0.03,0.17,-96.00,1.00,-44.0016784.00,-9.76,-1.25,-2.34,0.19,-0.03,0.17,-96.00,1.00,-44.0016796.00,-9.26,-2.91,-3.08,0.16,-0.13,0.08,-96.00,1.00,-44.0016809.00,-9.26,-2.91,-3.08,0.16,-0.13,0.08,-96.00,1.00,-44.0016821.00,-9.17,-4.44,-2.17,0.07,-0.17,0.18,-96.00,1.00,-40.0016833.00,-8.86,-4.87,-2.28,-0.11,-0.14,0.23,-96.00,1.00,-40.0016844.00,-8.86,-4.87,-2.28,-0.11,-0.14,0.23,-96.00,1.00,-40.0016857.00,-9.59,-1.83,-4.10,-0.31,-0.02,0.25,-96.00,1.00,-40.0016869.00,-9.59,-1.83,-4.10,-0.31,-0.02,0.25,-96.00,1.00,-40.0016880.00,-8.16,-1.40,-4.10,-0.39,0.10,-0.01,-96.00,1.00,-40.0016892.00,-8.25,-0.84,-6.61,-0.34,0.15,-0.31,-96.00,1.00,-40.0016905.00,-8.25,-0.84,-6.61,-0.34,0.15,-0.31,-96.00,1.00,-40.0016917.00,-8.70,-0.25,-6.41,-0.22,0.07,-0.42,-96.00,1.00,-40.0016928.00,-8.70,-0.25,-6.41,-0.22,0.07,-0.42,-96.00,1.00,-40.0016940.00,-8.99,-0.58,-5.64,0.05,-0.01,-0.31,-94.00,-2.00,-44.0016954.00,-9.40,0.88,-4.80,0.18,-0.07,-0.07,-94.00,-2.00,-44.0016965.00,-9.40,0.88,-4.80,0.18,-0.07,-0.07,-94.00,-2.00,-44.0016977.00,-9.23,0.57,-3.94,0.22,-0.07,-0.10,-94.00,-2.00,-44.0016989.00,-9.23,0.57,-3.94,0.22,-0.07,-0.10,-94.00,-2.00,-44.0017002.00,-8.90,-0.45,-2.62,0.17,0.05,-0.17,-94.00,-2.00,-44.0017013.00,-9.32,-1.25,-2.94,0.12,0.14,-0.18,-94.00,-2.00,-44.0017025.00,-9.32,-1.25,-2.94,0.12,0.14,-0.18,-94.00,-2.00,-44.0017037.00,-9.71,-1.77,-2.58,0.18,0.12,0.01,-94.00,-2.00,-44.0017050.00,-9.07,-2.64,-3.31,0.12,0.09,0.17,-96.00,1.00,-40.0017061.00,-9.07,-2.64,-3.31,0.12,0.09,0.17,-96.00,1.00,-40.0017073.00,-10.27,-1.93,-2.63,0.07,0.07,0.32,-96.00,1.00,-40.0017085.00,-10.27,-1.93,-2.63,0.07,0.07,0.32,-96.00,1.00,-40.0017098.00,-9.57,-1.67,-2.89,0.03,-0.05,0.30,-96.00,1.00,-40.0017110.00,-9.57,-1.67,-2.89,0.03,-0.05,0.30,-96.00,1.00,-40.0017121.00,-8.44,-3.98,-3.54,0.02,-0.10,0.22,-96.00,1.00,-40.0017133.00,-9.01,-2.84,-3.65,-0.06,-0.23,0.15,-96.00,1.00,-40.0017146.00,-9.01,-2.84,-3.65,-0.06,-0.23,0.15,-96.00,1.00,-40.0017157.00,-8.44,-3.16,-4.47,-0.08,-0.15,-0.03,-96.00,1.00,-40.0017169.00,-8.44,-3.16,-4.47,-0.08,-0.15,-0.03,-96.00,1.00,-40.0017181.00,-8.36,-2.11,-5.61,-0.09,-0.09,-0.06,-96.00,1.00,-40.0017194.00,-8.33,-0.31,-5.47,0.01,-0.07,-0.15,-96.00,-5.00,-44.0017206.00,-8.33,-0.31,-5.47,0.01,-0.07,-0.15,-96.00,-5.00,-44.0017218.00,-8.95,-1.78,-4.15,0.12,-0.07,-0.37,-96.00,-5.00,-44.0017229.00,-8.95,-1.78,-4.15,0.12,-0.07,-0.37,-96.00,-5.00,-44.0017243.00,-9.44,-1.59,-5.03,0.12,0.01,-0.30,-96.00,-5.00,-44.0017254.00,-9.11,0.19,-4.81,0.15,0.03,-0.01,-96.00,-5.00,-44.0017266.00,-9.11,0.19,-4.81,0.15,0.03,-0.01,-96.00,-5.00,-44.0017278.00,-9.25,1.37,-4.37,0.14,0.04,0.14,-96.00,-5.00,-44.0017291.00,-9.78,0.77,-4.29,0.08,0.04,-0.02,-96.00,-5.00,-44.0017302.00,-9.78,0.77,-4.29,0.08,0.04,-0.02,-96.00,-5.00,-44.0017314.00,-9.03,-0.68,-3.11,0.07,0.04,-0.21,-94.00,1.00,-40.0017325.00,-9.03,-0.68,-3.11,0.07,0.04,-0.21,-94.00,1.00,-40.0017338.00,-9.38,-1.62,-2.71,0.06,0.10,-0.11,-94.00,1.00,-40.0017350.00,-9.38,-1.62,-2.71,0.06,0.10,-0.11,-94.00,1.00,-40.0017361.00,-9.42,-2.39,-3.05,0.05,0.11,0.12,-94.00,1.00,-40.0017373.00,-8.62,-3.88,-3.34,0.02,0.09,0.23,-94.00,1.00,-40.0017386.00,-8.62,-3.88,-3.34,0.02,0.09,0.23,-94.00,1.00,-40.0017397.00,-9.32,-2.97,-5.70,-0.05,0.03,0.19,-94.00,1.00,-40.0017408.00,-9.32,-2.97,-5.70,-0.05,0.03,0.19,-94.00,1.00,-40.0017420.00,-9.78,-1.55,-2.79,-0.04,-0.12,0.28,-94.00,1.00,-40.0017433.00,-9.26,-0.82,-2.33,-0.10,-0.17,0.27,-96.00,-5.00,-44.0017445.00,-9.26,-0.82,-2.33,-0.10,-0.17,0.27,-96.00,-5.00,-44.0017456.00,-9.01,-3.52,-3.75,-0.13,-0.14,0.09,-96.00,-5.00,-44.0017468.00,-9.01,-3.52,-3.75,-0.13,-0.14,0.09,-96.00,-5.00,-44.0017481.00,-8.53,-2.96,-2.84,-0.21,-0.22,0.13,-96.00,-5.00,-44.0017493.00,-9.17,-1.36,-3.44,-0.32,-0.14,-0.04,-96.00,-5.00,-44.0017504.00,-9.17,-1.36,-3.44,-0.32,-0.14,-0.04,-96.00,-5.00,-44.0017516.00,-8.47,-1.43,-2.88,-0.32,-0.05,-0.25,-96.00,-5.00,-44.0017529.00,-8.47,-1.43,-2.88,-0.32,-0.05,-0.25,-96.00,-5.00,-44.0017541.00,-8.30,-2.31,-4.69,-0.36,0.17,-0.34,-96.00,-5.00,-44.0017553.00,-8.46,-0.94,-6.32,-0.32,0.21,-0.20,-98.00,-2.00,-44.0017565.00,-8.46,-0.94,-6.32,-0.32,0.21,-0.20,-98.00,-2.00,-44.0017578.00,-8.79,-0.57,-6.87,-0.17,0.16,-0.18,-98.00,-2.00,-44.0017589.00,-8.79,-0.57,-6.87,-0.17,0.16,-0.18,-98.00,-2.00,-44.0017600.00,-9.04,0.20,-4.98,0.01,0.02,-0.11,-98.00,-2.00,-44.0017612.00,-9.40,-0.88,-4.66,0.10,0.00,-0.13,-98.00,-2.00,-44.0017625.00,-9.40,-0.88,-4.66,0.10,0.00,-0.13,-98.00,-2.00,-44.0017637.00,-9.49,0.63,-3.61,0.05,-0.02,-0.11,-98.00,-2.00,-44.0017648.00,-9.49,0.63,-3.61,0.05,-0.02,-0.11,-98.00,-2.00,-44.0017660.00,-9.92,0.48,-3.28,0.03,0.02,-0.22,-98.00,-2.00,-44.0017667.00,-9.92,0.48,-3.28,0.03,0.02,-0.22,-98.00,-2.00,-44.0017743.00,-9.75,-0.97,-2.82,0.31,0.09,0.34,-96.00,4.00,-48.0017822.00,-9.01,-1.64,-3.85,-0.17,-0.22,0.29,-98.00,1.00,-44.0017901.00,-8.82,-2.83,-4.45,-0.14,0.03,-0.59,-98.00,1.00,-44.0017992.00,-9.39,-0.27,-2.70,0.28,-0.02,-0.16,-98.00,4.00,-48.0018004.00,-9.39,-0.27,-2.70,0.28,-0.02,-0.16,-98.00,4.00,-48.0018015.00,-9.78,-1.05,-2.67,0.17,0.02,-0.17,-98.00,4.00,-48.0018027.00,-9.78,-1.05,-2.67,0.17,0.02,-0.17,-98.00,4.00,-48.0018041.00,-8.88,-2.82,-2.98,0.09,0.07,0.02,-98.00,4.00,-48.0018053.00,-8.91,-2.12,-3.78,-0.00,0.09,0.32,-98.00,4.00,-48.0018064.00,-8.91,-2.12,-3.78,-0.00,0.09,0.32,-98.00,4.00,-48.0018076.00,-9.82,-0.60,-3.58,-0.00,0.04,0.37,-96.00,1.00,-44.0018089.00,-9.82,-0.60,-3.58,-0.00,0.04,0.37,-96.00,1.00,-44.0018101.00,-9.06,-1.51,-3.40,0.03,-0.10,0.14,-96.00,1.00,-44.0018112.00,-9.58,-1.98,-3.49,0.02,-0.16,0.04,-96.00,1.00,-44.0018124.00,-9.58,-1.98,-3.49,0.02,-0.16,0.04,-96.00,1.00,-44.0018137.00,-8.84,-4.45,-3.19,-0.01,-0.20,0.04,-96.00,1.00,-44.0018149.00,-8.84,-4.45,-3.19,-0.01,-0.20,0.04,-96.00,1.00,-44.0018161.00,-8.76,-3.92,-2.94,-0.15,-0.16,0.20,-96.00,1.00,-44.0018172.00,-9.18,-3.15,-4.22,-0.32,-0.05,0.11,-96.00,1.00,-44.0018186.00,-9.18,-3.15,-4.22,-0.32,-0.05,0.11,-96.00,1.00,-44.0018198.00,-8.98,-1.63,-4.31,-0.39,0.06,-0.04,-98.00,1.00,-44.0018209.00,-8.98,-1.63,-4.31,-0.39,0.06,-0.04,-98.00,1.00,-44.0018221.00,-9.44,-1.08,-4.91,-0.33,0.08,-0.23,-98.00,1.00,-44.0018234.00,-8.27,-1.02,-5.14,-0.13,0.07,-0.23,-98.00,1.00,-44.0018246.00,-8.27,-1.02,-5.14,-0.13,0.07,-0.23,-98.00,1.00,-44.0018257.00,-8.38,-0.63,-6.08,-0.01,0.10,-0.21,-98.00,1.00,-44.0018269.00,-8.38,-0.63,-6.08,-0.01,0.10,-0.21,-98.00,1.00,-44.0018283.00,-8.72,0.39,-5.32,0.02,0.08,-0.14,-98.00,1.00,-44.0018294.00,-9.72,0.76,-5.22,0.02,0.09,-0.11,-98.00,1.00,-44.0018306.00,-9.72,0.76,-5.22,0.02,0.09,-0.11,-98.00,1.00,-44.0018318.00,-9.33,-0.07,-4.49,0.09,0.03,-0.15,-98.00,1.00,-48.0018331.00,-9.33,-0.07,-4.49,0.09,0.03,-0.15,-98.00,1.00,-48.0018343.00,-9.82,-0.09,-2.99,0.14,0.02,-0.13,-98.00,1.00,-48.0018355.00,-9.38,-1.29,-3.23,0.13,0.04,-0.11,-98.00,1.00,-48.0018367.00,-9.38,-1.29,-3.23,0.13,0.04,-0.11,-98.00,1.00,-48.0018378.00,-9.97,-0.90,-3.17,0.10,0.11,0.12,-98.00,1.00,-48.0018391.00,-9.97,-0.90,-3.17,0.10,0.11,0.12,-98.00,1.00,-48.0018403.00,-10.15,-1.08,-3.17,0.13,0.07,0.18,-98.00,1.00,-48.0018415.00,-8.92,-3.17,-3.07,0.08,0.04,0.13,-98.00,1.00,-48.0018426.00,-8.92,-3.17,-3.07,0.08,0.04,0.13,-98.00,1.00,-48.0018439.00,-9.37,-3.46,-3.02,-0.05,-0.09,0.11,-96.00,1.00,-44.0018450.00,-9.37,-3.46,-3.02,-0.05,-0.09,0.11,-96.00,1.00,-44.0018462.00,-9.14,-3.31,-2.90,-0.08,-0.15,0.22,-96.00,1.00,-44.0018474.00,-8.98,-4.05,-2.98,-0.17,-0.19,0.26,-96.00,1.00,-44.0018487.00,-8.98,-4.05,-2.98,-0.17,-0.19,0.26,-96.00,1.00,-44.0018499.00,-9.30,-3.10,-2.08,-0.19,-0.25,0.34,-96.00,1.00,-44.0018510.00,-9.30,-3.10,-2.08,-0.19,-0.25,0.34,-96.00,1.00,-44.0018522.00,-9.09,-1.69,-3.91,-0.23,-0.24,0.14,-96.00,1.00,-44.0018535.00,-7.94,-2.73,-2.47,-0.26,-0.18,-0.13,-96.00,1.00,-44.0018547.00,-7.94,-2.73,-2.47,-0.26,-0.18,-0.13,-96.00,1.00,-44.0018558.00,-8.65,-1.49,-4.72,-0.30,0.01,-0.24,-96.00,1.00,-44.0018570.00,-8.65,-1.49,-4.72,-0.30,0.01,-0.24,-96.00,1.00,-44.0018583.00,-8.90,-0.70,-4.96,-0.22,0.13,-0.29,-96.00,1.00,-44.0018595.00,-8.54,0.19,-5.87,-0.14,0.13,-0.32,-96.00,1.00,-44.0018606.00,-8.54,0.19,-5.87,-0.14,0.13,-0.32,-96.00,1.00,-44.0018618.00,-9.03,-0.79,-4.95,0.05,-0.01,-0.28,-96.00,1.00,-44.0018632.00,-9.22,0.23,-4.93,0.14,-0.04,-0.12,-96.00,1.00,-44.0018643.00,-9.22,0.23,-4.93,0.14,-0.04,-0.12,-96.00,1.00,-44.0018655.00,-9.36,0.76,-4.25,0.19,-0.12,-0.13,-96.00,1.00,-44.0018666.00,-9.36,0.76,-4.25,0.19,-0.12,-0.13,-96.00,1.00,-44.0018671.00,-9.36,0.76,-4.25,0.19,-0.12,-0.13,-96.00,1.00,-44.0018750.00,-10.40,1.45,-2.18,0.08,0.15,0.37,-94.00,4.00,-44.0018829.00,-9.05,-3.40,-1.09,-0.14,-0.18,0.27,-98.00,1.00,-48.0018908.00,-8.75,-2.54,-3.40,-0.24,-0.30,-0.54,-98.00,1.00,-48.0018998.00,-9.63,0.37,-4.79,0.10,-0.00,-0.19,-96.00,4.00,-48.0019009.00,-9.63,0.37,-4.79,0.10,-0.00,-0.19,-96.00,4.00,-48.0019021.00,-9.48,1.33,-2.86,0.21,-0.17,-0.25,-96.00,4.00,-48.0019032.00,-9.91,-1.43,-3.16,0.20,-0.02,-0.30,-96.00,4.00,-48.0019046.00,-9.91,-1.43,-3.16,0.20,-0.02,-0.30,-96.00,4.00,-48.0019057.00,-9.81,-0.55,-0.84,0.11,0.03,0.06,-96.00,4.00,-48.0019069.00,-9.81,-0.55,-0.84,0.11,0.03,0.06,-96.00,4.00,-48.0019080.00,-10.31,-1.36,-2.05,0.08,0.12,0.27,-100.00,7.00,-53.0019093.00,-9.92,-3.63,-2.66,0.05,0.04,0.23,-100.00,7.00,-53.0019105.00,-9.92,-3.63,-2.66,0.05,0.04,0.23,-100.00,7.00,-53.0019116.00,-9.90,-1.35,-0.94,-0.02,-0.16,0.25,-100.00,7.00,-53.0019127.00,-9.90,-1.35,-0.94,-0.02,-0.16,0.25,-100.00,7.00,-53.0019141.00,-8.54,-4.74,-2.64,-0.08,-0.19,0.09,-100.00,7.00,-53.0019152.00,-8.54,-4.74,-2.64,-0.08,-0.19,0.09,-100.00,7.00,-53.0019164.00,-8.69,-4.25,-3.57,-0.23,-0.27,0.12,-100.00,7.00,-53.0019176.00,-9.22,-4.14,-1.32,-0.37,-0.24,0.09,-100.00,7.00,-53.0019189.00,-9.22,-4.14,-1.32,-0.37,-0.24,0.09,-100.00,7.00,-53.0019200.00,-8.45,-3.63,-3.43,-0.54,-0.05,0.01,-100.00,-2.00,-53.0019212.00,-8.45,-3.63,-3.43,-0.54,-0.05,0.01,-100.00,-2.00,-53.0019223.00,-8.25,0.41,-6.18,-0.69,0.08,-0.03,-100.00,-2.00,-53.0019235.00,-8.29,-1.24,-4.72,-0.51,0.13,-0.35,-100.00,-2.00,-53.0019247.00,-8.29,-1.24,-4.72,-0.51,0.13,-0.35,-100.00,-2.00,-53.0019258.00,-9.02,-0.84,-5.62,-0.34,0.06,-0.51,-100.00,-2.00,-53.0019269.00,-9.02,-0.84,-5.62,-0.34,0.06,-0.51,-100.00,-2.00,-53.0019282.00,-8.60,-1.19,-5.22,-0.12,0.00,-0.47,-100.00,-2.00,-53.0019294.00,-8.88,-1.25,-4.61,-0.02,-0.04,-0.26,-100.00,-2.00,-53.0019306.00,-8.88,-1.25,-4.61,-0.02,-0.04,-0.26,-100.00,-2.00,-53.0019319.00,-9.60,0.95,-5.23,-0.04,0.03,0.07,-98.00,7.00,-48.0019330.00,-9.60,0.95,-5.23,-0.04,0.03,0.07,-98.00,7.00,-48.0019342.00,-9.50,0.49,-4.13,0.00,0.01,0.01,-98.00,7.00,-48.0019354.00,-9.42,0.67,-3.80,0.08,0.02,-0.07,-98.00,7.00,-48.0019366.00,-9.42,0.67,-3.80,0.08,0.02,-0.07,-98.00,7.00,-48.0019379.00,-9.73,-0.41,-2.94,0.15,0.06,-0.09,-98.00,7.00,-48.0019390.00,-9.73,-0.41,-2.94,0.15,0.06,-0.09,-98.00,7.00,-48.0019401.00,-10.72,-0.05,-1.93,0.26,0.01,0.07,-98.00,7.00,-48.0019413.00,-9.57,-2.08,-1.31,0.24,-0.05,0.12,-98.00,7.00,-48.0019426.00,-9.57,-2.08,-1.31,0.24,-0.05,0.12,-98.00,7.00,-48.0019438.00,-9.30,-4.01,-0.76,0.05,-0.07,0.13,-100.00,11.00,-48.0019449.00,-9.30,-4.01,-0.76,0.05,-0.07,0.13,-100.00,11.00,-48.0019461.00,-10.04,-2.31,-0.76,-0.18,-0.07,0.35,-100.00,11.00,-48.0019474.00,-8.84,-3.21,-3.31,-0.29,0.00,0.33,-100.00,11.00,-48.0019486.00,-8.84,-3.21,-3.31,-0.29,0.00,0.33,-100.00,11.00,-48.0019497.00,-9.17,-3.18,-3.23,-0.38,-0.04,0.32,-100.00,11.00,-48.0019509.00,-9.17,-3.18,-3.23,-0.38,-0.04,0.32,-100.00,11.00,-48.0019523.00,-8.82,-3.93,-4.72,-0.38,-0.08,0.13,-100.00,11.00,-48.0019535.00,-8.34,-2.56,-5.49,-0.42,-0.10,-0.05,-100.00,11.00,-48.0019546.00,-8.34,-2.56,-5.49,-0.42,-0.10,-0.05,-100.00,11.00,-48.0019559.00,-8.68,-1.86,-5.17,-0.39,-0.08,-0.22,-100.00,11.00,-48.0019571.00,-8.68,-1.86,-5.17,-0.39,-0.08,-0.22,-100.00,11.00,-48.0019583.00,-8.78,-0.75,-4.53,-0.24,0.02,-0.35,-100.00,-2.00,-57.0019594.00,-8.98,-1.91,-5.41,-0.14,0.14,-0.57,-100.00,-2.00,-57.0019607.00,-8.98,-1.91,-5.41,-0.14,0.14,-0.57,-100.00,-2.00,-57.0019619.00,-8.99,-0.93,-5.15,0.01,0.23,-0.26,-100.00,-2.00,-57.0019631.00,-8.99,-0.93,-5.15,0.01,0.23,-0.26,-100.00,-2.00,-57.0019643.00,-9.50,0.31,-5.84,0.10,0.17,-0.04,-100.00,-2.00,-57.0019656.00,-9.46,1.42,-3.82,0.13,-0.00,0.04,-100.00,-2.00,-57.0019668.00,-9.46,1.42,-3.82,0.13,-0.00,0.04,-100.00,-2.00,-57.0019680.00,-9.74,0.03,-3.16,0.06,-0.01,-0.10,-100.00,-2.00,-57.0019691.00,-9.74,0.03,-3.16,0.06,-0.01,-0.10,-100.00,-2.00,-57.0019705.00,-9.40,-1.42,-2.05,0.01,0.01,-0.18,-98.00,11.00,-53.0019716.00,-9.54,-1.37,-3.28,-0.05,0.14,0.07,-98.00,11.00,-53.0019727.00,-9.54,-1.37,-3.28,-0.05,0.14,0.07,-98.00,11.00,-53.0019739.00,-9.33,-1.43,-3.68,-0.08,0.12,0.25,-98.00,11.00,-53.0019752.00,-9.33,-1.43,-3.68,-0.08,0.12,0.25,-98.00,11.00,-53.0019764.00,-8.64,-2.74,-4.20,-0.05,0.05,0.32,-98.00,11.00,-53.0019776.00,-9.88,-1.52,-4.01,-0.12,-0.11,0.27,-98.00,11.00,-53.0019787.00,-9.88,-1.52,-4.01,-0.12,-0.11,0.27,-98.00,11.00,-53.0019800.00,-9.32,-2.11,-3.22,-0.05,-0.25,0.24,-98.00,11.00,-53.0019812.00,-9.32,-2.11,-3.22,-0.05,-0.25,0.24,-98.00,11.00,-53.0019822.00,-9.21,-3.28,-3.77,-0.05,-0.29,0.20,-98.00,4.00,-53.0019834.00,-9.12,-2.72,-2.82,-0.11,-0.24,0.14,-98.00,4.00,-53.0019847.00,-9.12,-2.72,-2.82,-0.11,-0.24,0.14,-98.00,4.00,-53.0019858.00,-8.98,-2.10,-3.67,-0.23,-0.05,0.01,-98.00,4.00,-53.0019870.00,-8.98,-2.10,-3.67,-0.23,-0.05,0.01,-98.00,4.00,-53.0019881.00,-9.14,-1.74,-3.98,-0.31,0.07,-0.11,-98.00,4.00,-53.0019894.00,-8.81,-1.38,-5.64,-0.18,0.02,-0.27,-98.00,4.00,-53.0019906.00,-8.81,-1.38,-5.64,-0.18,0.02,-0.27,-98.00,4.00,-53.0019917.00,-9.07,-1.68,-3.10,0.03,-0.07,-0.25,-98.00,4.00,-53.0019929.00,-9.07,-1.68,-3.10,0.03,-0.07,-0.25,-98.00,4.00,-53.0019943.00,-9.37,-0.26,-3.63,-0.03,-0.03,-0.01,-98.00,4.00,-53.0019954.00,-9.33,-0.40,-3.67,-0.09,0.00,-0.02,-98.00,4.00,-53.0019966.00,-9.33,-0.40,-3.67,-0.09,0.00,-0.02,-98.00,4.00,-53.0019978.00,-9.29,-1.05,-3.71,-0.04,0.03,-0.16,-98.00,4.00,-53.0019991.00,-9.29,-1.05,-3.71,-0.04,0.03,-0.16,-98.00,4.00,-53.0020003.00,-9.07,-1.72,-4.12,-0.00,0.03,-0.23,-98.00,4.00,-53.0020015.00,-9.09,-2.12,-4.01,0.02,-0.02,-0.21,-98.00,4.00,-53.0020027.00,-9.09,-2.12,-4.01,0.02,-0.02,-0.21,-98.00,4.00,-53.0020040.00,-9.11,-2.08,-3.58,-0.01,-0.07,-0.13,-98.00,4.00,-53.0020051.00,-9.11,-2.08,-3.58,-0.01,-0.07,-0.13,-98.00,4.00,-53.0020063.00,-9.16,-1.93,-3.48,-0.05,-0.06,-0.06,-98.00,4.00,-53.0020075.00,-9.14,-1.88,-3.60,-0.06,-0.03,-0.00,-96.00,11.00,-57.0020088.00,-9.14,-1.88,-3.60,-0.06,-0.03,-0.00,-96.00,11.00,-57.0020100.00,-9.15,-1.79,-3.73,-0.08,-0.01,0.04,-96.00,11.00,-57.0020112.00,-9.15,-1.79,-3.73,-0.08,-0.01,0.04,-96.00,11.00,-57.0020123.00,-9.16,-1.64,-3.76,-0.08,-0.01,0.06,-96.00,11.00,-57.0020136.00,-9.18,-1.69,-3.70,-0.07,-0.02,0.07,-96.00,11.00,-57.0020147.00,-9.18,-1.69,-3.70,-0.07,-0.02,0.07,-96.00,11.00,-57.0020159.00,-9.17,-2.30,-2.85,0.00,0.01,0.11,-96.00,11.00,-57.0020170.00,-9.17,-2.30,-2.85,0.00,0.01,0.11,-96.00,11.00,-57.0020184.00,-9.40,-2.50,-1.42,0.15,0.22,0.25,-96.00,11.00,-57.0020195.00,-13.52,-1.71,0.65,0.30,0.72,0.43,-98.00,4.00,-57.0020207.00,-13.52,-1.71,0.65,0.30,0.72,0.43,-98.00,4.00,-57.0020218.00,-13.98,0.06,-1.00,-0.54,1.74,0.32,-98.00,4.00,-57.0020233.00,-13.98,0.06,-1.00,-0.54,1.74,0.32,-98.00,4.00,-57.0020244.00,-8.23,1.41,-11.12,-1.33,2.52,-0.04,-98.00,4.00,-57.0020256.00,-8.87,6.78,-16.38,-0.77,1.83,-0.07,-98.00,4.00,-57.0020267.00,-8.87,6.78,-16.38,-0.77,1.83,-0.07,-98.00,4.00,-57.0020280.00,-8.19,0.90,-9.34,0.45,0.43,-0.68,-98.00,4.00,-57.0020292.00,-8.19,0.90,-9.34,0.45,0.43,-0.68,-98.00,4.00,-57.0020303.00,-5.71,-0.78,-7.76,0.74,0.48,-0.40,-98.00,4.00,-57.0020314.00,-4.71,0.25,-8.24,0.80,0.47,0.10,-94.00,7.00,-31.0020328.00,-4.71,0.25,-8.24,0.80,0.47,0.10,-94.00,7.00,-31.0020339.00,-5.90,0.37,-5.37,1.02,0.09,0.25,-94.00,7.00,-31.0020351.00,-5.90,0.37,-5.37,1.02,0.09,0.25,-94.00,7.00,-31.0020362.00,-5.84,-1.69,-2.77,1.08,0.14,0.28,-94.00,7.00,-31.0020366.00,-5.84,-1.69,-2.77,1.08,0.14,0.28,-94.00,7.00,-31.0020446.00,-6.86,0.78,-6.65,0.64,0.78,1.67,-94.00,7.00,-31.0020525.00,-9.95,-2.87,-1.02,1.27,-0.27,0.65,-90.00,-5.00,-18.0020604.00,-10.56,-1.47,-2.58,0.87,-0.62,0.20,-90.00,-18.00,-9.0020695.00,-10.59,-2.29,-3.01,0.41,-0.42,-0.25,-90.00,-15.00,-9.0020706.00,-10.59,-2.29,-3.01,0.41,-0.42,-0.25,-90.00,-15.00,-9.0020718.00,-7.39,-2.79,-3.74,0.19,-0.06,-0.14,-90.00,-15.00,-9.0020730.00,-7.39,-2.79,-3.74,0.19,-0.06,-0.14,-90.00,-15.00,-9.0020743.00,-6.68,-0.41,-5.22,0.05,0.07,0.27,-90.00,-15.00,-9.0020755.00,-7.22,0.52,-6.64,0.16,-0.11,0.30,-90.00,-15.00,-9.0020767.00,-7.22,0.52,-6.64,0.16,-0.11,0.30,-90.00,-15.00,-9.0020778.00,-10.70,1.69,-6.86,0.39,-0.54,-0.02,-90.00,-15.00,-9.0020790.00,-10.70,1.69,-6.86,0.39,-0.54,-0.02,-90.00,-15.00,-9.0020802.00,-9.37,-3.49,-3.55,0.57,-0.73,-0.56,-90.00,-15.00,-9.0020814.00,-8.62,-2.67,-2.84,0.30,-0.33,-0.13,-90.00,-15.00,-9.0020826.00,-8.62,-2.67,-2.84,0.30,-0.33,-0.13,-90.00,-15.00,-22.0020839.00,-8.52,-0.17,-5.42,0.09,0.04,0.21,-90.00,-15.00,-22.0020850.00,-8.52,-0.17,-5.42,0.09,0.04,0.21,-90.00,-15.00,-22.0020862.00,-9.23,-0.45,-4.85,0.20,-0.16,-0.02,-90.00,-15.00,-22.0020874.00,-8.93,-1.88,-4.23,0.23,-0.25,-0.22,-90.00,-15.00,-22.0020888.00,-8.93,-1.88,-4.23,0.23,-0.25,-0.22,-90.00,-15.00,-22.0020900.00,-9.03,-1.18,-4.59,0.11,-0.17,-0.13,-90.00,-15.00,-22.0020911.00,-9.03,-1.18,-4.59,0.11,-0.17,-0.13,-90.00,-15.00,-22.0020922.00,-8.69,-0.95,-4.89,0.07,-0.15,-0.11,-90.00,-15.00,-22.0020936.00,-8.73,-0.40,-5.32,0.11,-0.20,-0.11,-90.00,-15.00,-22.0020947.00,-8.73,-0.40,-5.32,0.11,-0.20,-0.11,-90.00,-15.00,-22.0020958.00,-8.79,-0.51,-5.08,0.21,-0.26,-0.17,-92.00,-15.00,-22.0020970.00,-8.79,-0.51,-5.08,0.21,-0.26,-0.17,-92.00,-15.00,-22.0020983.00,-8.73,-1.10,-4.70,0.24,-0.30,-0.22,-92.00,-15.00,-22.0020995.00,-8.68,-1.08,-4.90,0.24,-0.34,-0.19,-92.00,-15.00,-22.0021006.00,-8.68,-1.08,-4.90,0.24,-0.34,-0.19,-92.00,-15.00,-22.0021018.00,-8.76,-1.15,-4.76,0.27,-0.41,-0.16,-92.00,-15.00,-22.0021031.00,-8.76,-1.15,-4.76,0.27,-0.41,-0.16,-92.00,-15.00,-22.0021043.00,-8.87,-0.96,-4.67,0.28,-0.46,-0.16,-92.00,-15.00,-22.0021054.00,-8.87,-0.96,-4.67,0.28,-0.46,-0.16,-92.00,-15.00,-22.0021066.00,-9.47,-1.70,-3.44,0.26,-0.40,-0.24,-92.00,-15.00,-22.0021079.00,-9.08,-2.23,-3.23,0.14,-0.19,-0.22,-90.00,-12.00,-18.0021090.00,-9.08,-2.23,-3.23,0.14,-0.19,-0.22,-90.00,-12.00,-18.0021102.00,-8.97,-1.88,-3.82,0.07,-0.05,-0.08,-90.00,-12.00,-18.0021115.00,-8.97,-1.11,-4.77,-0.00,0.00,-0.00,-90.00,-12.00,-18.0021127.00,-8.97,-1.11,-4.77,-0.00,0.00,-0.00,-90.00,-12.00,-18.0021138.00,-9.03,-0.90,-4.74,0.02,-0.06,-0.04,-90.00,-12.00,-18.0021150.00,-9.03,-0.90,-4.74,0.02,-0.06,-0.04,-90.00,-12.00,-18.0021163.00,-8.46,-1.90,-5.46,0.10,-0.18,-0.09,-90.00,-12.00,-18.0021175.00,-9.13,-1.30,-3.81,0.13,-0.30,-0.08,-90.00,-12.00,-18.0021187.00,-9.13,-1.30,-3.81,0.13,-0.30,-0.08,-90.00,-12.00,-18.0021198.00,-9.06,-1.59,-3.93,0.07,-0.11,-0.17,-92.00,-8.00,-27.0021211.00,-9.06,-1.59,-3.93,0.07,-0.11,-0.17,-92.00,-8.00,-27.0021223.00,-9.03,-1.64,-4.17,0.02,-0.08,-0.14,-92.00,-8.00,-27.0021234.00,-9.03,-1.64,-4.17,0.02,-0.08,-0.14,-92.00,-8.00,-27.0021245.00,-9.01,-1.66,-4.05,0.02,-0.09,-0.10,-92.00,-8.00,-27.0021259.00,-9.06,-1.60,-3.97,0.01,-0.08,-0.07,-92.00,-8.00,-27.0021271.00,-9.06,-1.60,-3.97,0.01,-0.08,-0.07,-92.00,-8.00,-27.0021283.00,-9.07,-1.51,-4.02,0.02,-0.06,-0.06,-92.00,-8.00,-27.0021294.00,-9.07,-1.51,-4.02,0.02,-0.06,-0.06,-92.00,-8.00,-27.0021307.00,-9.03,-1.51,-3.99,0.01,-0.05,-0.06,-92.00,-8.00,-27.0021319.00,-9.11,-1.59,-4.01,0.02,-0.03,-0.05,-94.00,-2.00,-35.0021330.00,-9.11,-1.59,-4.01,0.02,-0.03,-0.05,-94.00,-2.00,-35.0021342.00,-8.99,-1.67,-4.04,0.02,-0.02,-0.04,-94.00,-2.00,-35.0021346.00,-8.99,-1.67,-4.04,0.02,-0.02,-0.04,-94.00,-2.00,-35.0021428.00,-9.10,-1.47,-3.92,0.00,-0.01,0.01,-94.00,-2.00,-35.0021504.00,-9.15,-1.22,-4.06,-0.03,0.01,0.03,-94.00,-8.00,-27.0021583.00,-9.18,-3.26,-2.65,-0.54,-0.23,-0.25,-96.00,-5.00,-35.0021672.00,-8.52,-0.24,-6.48,-0.24,-0.02,-0.31,-96.00,-5.00,-35.0021684.00,-9.01,-1.70,-4.94,0.17,0.01,-0.15,-96.00,-5.00,-35.0021696.00,-9.17,0.57,-4.58,0.09,-0.02,0.05,-94.00,-5.00,-40.0021707.00,-9.17,0.57,-4.58,0.09,-0.02,0.05,-94.00,-5.00,-40.0021720.00,-9.45,-0.40,-4.76,-0.05,-0.05,-0.05,-94.00,-5.00,-40.0021731.00,-9.45,-0.40,-4.76,-0.05,-0.05,-0.05,-94.00,-5.00,-40.0021743.00,-9.39,0.03,-3.83,-0.01,-0.09,-0.07,-94.00,-5.00,-40.0021754.00,-9.39,0.03,-3.83,-0.01,-0.09,-0.07,-94.00,-5.00,-40.0021766.00,-9.47,-0.01,-3.31,0.11,-0.05,-0.25,-94.00,-5.00,-40.0021778.00,-8.45,-3.30,-3.75,0.31,0.06,-0.22,-94.00,-5.00,-40.0021789.00,-8.45,-3.30,-3.75,0.31,0.06,-0.22,-94.00,-5.00,-40.0021801.00,-9.25,-0.91,-3.52,0.44,0.21,0.29,-94.00,-5.00,-40.0021814.00,-9.25,-0.91,-3.52,0.44,0.21,0.29,-94.00,-5.00,-40.0021825.00,-9.54,-2.55,-3.16,0.54,0.22,0.28,-94.00,-5.00,-35.0021837.00,-9.80,-2.49,-1.44,0.27,-0.02,0.20,-94.00,-5.00,-35.0021848.00,-9.80,-2.49,-1.44,0.27,-0.02,0.20,-94.00,-5.00,-35.0021861.00,-10.47,-1.65,-1.78,0.00,-0.13,0.18,-94.00,-5.00,-35.0021873.00,-10.47,-1.65,-1.78,0.00,-0.13,0.18,-94.00,-5.00,-35.0021884.00,-9.03,-3.68,-3.08,-0.01,-0.11,0.30,-94.00,-5.00,-35.0021896.00,-8.81,-2.87,-3.33,-0.13,-0.13,0.39,-94.00,-5.00,-35.0021909.00,-8.81,-2.87,-3.33,-0.13,-0.13,0.39,-94.00,-5.00,-35.0021921.00,-8.24,-2.88,-4.99,-0.24,-0.08,0.34,-94.00,-5.00,-35.0021932.00,-8.24,-2.88,-4.99,-0.24,-0.08,0.34,-94.00,-5.00,-35.0021944.00,-8.69,-1.99,-4.83,-0.35,-0.09,0.22,-94.00,-5.00,-35.0021958.00,-8.56,-0.19,-4.38,-0.23,-0.06,0.06,-98.00,-5.00,-40.0021969.00,-8.56,-0.19,-4.38,-0.23,-0.06,0.06,-98.00,-5.00,-40.0021983.00,-8.15,-1.53,-5.14,0.01,0.04,-0.24,-98.00,-5.00,-40.0021995.00,-8.15,-1.53,-5.14,0.01,0.04,-0.24,-98.00,-5.00,-40.0022007.00,-9.16,-0.09,-6.60,0.09,0.14,-0.27,-98.00,-5.00,-40.0022019.00,-9.65,0.65,-5.56,0.19,-0.03,-0.16,-98.00,-5.00,-40.0022030.00,-9.65,0.65,-5.56,0.19,-0.03,-0.16,-98.00,-5.00,-40.0022041.00,-9.27,-0.11,-3.72,0.20,-0.08,-0.09,-98.00,-5.00,-40.0022054.00,-9.27,-0.11,-3.72,0.20,-0.08,-0.09,-98.00,-5.00,-40.0022066.00,-9.97,0.06,-2.31,0.11,0.03,-0.06,-98.00,-5.00,-40.0022078.00,-9.38,-0.19,-2.12,0.01,0.17,0.05,-96.00,-5.00,-31.0022090.00,-9.38,-0.19,-2.12,0.01,0.17,0.05,-96.00,-5.00,-31.0022103.00,-10.78,0.75,-1.14,0.05,0.15,0.13,-96.00,-5.00,-31.0022114.00,-10.78,0.75,-1.14,0.05,0.15,0.13,-96.00,-5.00,-31.0022126.00,-9.54,-3.09,-3.01,0.13,0.05,-0.06,-96.00,-5.00,-31.0022140.00,-9.07,-3.02,-3.23,0.07,-0.10,0.11,-96.00,-5.00,-31.0022153.00,-9.07,-3.02,-3.23,0.07,-0.10,0.11,-96.00,-5.00,-31.0022164.00,-8.95,-4.52,-3.99,-0.09,-0.12,0.13,-96.00,-5.00,-31.0022176.00,-9.72,-3.63,-2.78,-0.24,-0.22,0.26,-96.00,-5.00,-31.0022187.00,-9.72,-3.63,-2.78,-0.24,-0.22,0.26,-96.00,-5.00,-31.0022200.00,-8.66,-3.37,-3.00,-0.40,-0.12,0.31,-96.00,-8.00,-35.0022212.00,-8.66,-3.37,-3.00,-0.40,-0.12,0.31,-96.00,-8.00,-35.0022223.00,-8.60,-1.64,-3.97,-0.43,-0.14,0.15,-96.00,-8.00,-35.0022235.00,-8.60,-1.64,-3.97,-0.43,-0.14,0.15,-96.00,-8.00,-35.0022248.00,-8.58,-0.61,-4.64,-0.41,-0.00,-0.16,-96.00,-8.00,-35.0022263.00,-8.07,-2.10,-4.98,-0.30,0.16,-0.37,-96.00,-8.00,-35.0022275.00,-8.07,-2.10,-4.98,-0.30,0.16,-0.37,-96.00,-8.00,-35.0022287.00,-8.55,-0.92,-6.94,-0.21,0.24,-0.25,-96.00,-8.00,-35.0022301.00,-8.43,-1.12,-5.27,-0.01,0.07,-0.02,-96.00,-8.00,-35.0022312.00,-8.43,-1.12,-5.27,-0.01,0.07,-0.02,-96.00,-8.00,-35.0022324.00,-9.65,2.86,-4.03,0.06,-0.06,0.20,-96.00,-8.00,-35.0022336.00,-9.82,0.79,-4.18,0.13,-0.06,-0.12,-96.00,-8.00,-35.0022349.00,-9.82,0.79,-4.18,0.13,-0.06,-0.12,-96.00,-8.00,-35.0022360.00,-9.66,0.06,-3.05,0.13,-0.10,-0.25,-96.00,-8.00,-35.0022372.00,-9.66,0.06,-3.05,0.13,-0.10,-0.25,-96.00,-8.00,-35.0022383.00,-9.48,-1.06,-2.33,0.07,-0.04,-0.43,-96.00,-8.00,-35.0022396.00,-8.75,-3.53,-3.34,0.04,0.14,-0.18,-96.00,-8.00,-35.0022408.00,-8.75,-3.53,-3.34,0.04,0.14,-0.18,-96.00,-8.00,-35.0022419.00,-10.19,-0.24,-4.71,-0.01,0.19,0.32,-96.00,-8.00,-35.0022431.00,-10.19,-0.24,-4.71,-0.01,0.19,0.32,-96.00,-8.00,-35.0022443.00,-9.08,-1.11,-3.14,0.09,0.03,0.24,-96.00,-8.00,-35.0022455.00,-9.08,-1.11,-3.14,0.09,0.03,0.24,-96.00,-8.00,-35.0022467.00,-9.86,-1.91,-2.38,0.10,-0.14,0.08,-92.00,-8.00,-35.0022478.00,-9.06,-3.87,-4.00,0.10,-0.31,-0.11,-92.00,-8.00,-35.0022491.00,-9.06,-3.87,-4.00,0.10,-0.31,-0.11,-92.00,-8.00,-35.0022503.00,-8.92,-3.24,-4.13,0.18,-0.58,-0.13,-92.00,-8.00,-35.0022515.00,-8.92,-3.24,-4.13,0.18,-0.58,-0.13,-92.00,-8.00,-35.0022526.00,-8.85,-4.24,-0.98,0.16,-0.55,-0.11,-92.00,-8.00,-35.0022539.00,-8.48,-4.45,-2.26,-0.13,-0.11,-0.00,-92.00,-8.00,-35.0022551.00,-8.48,-4.45,-2.26,-0.13,-0.11,-0.00,-92.00,-8.00,-35.0022563.00,-8.47,-1.89,-3.79,-0.36,0.37,0.28,-92.00,-8.00,-35.0022576.00,-9.28,0.40,-7.45,-0.48,0.69,0.33,-92.00,-8.00,-35.0022588.00,-9.28,0.40,-7.45,-0.48,0.69,0.33,-96.00,-8.00,-31.0022600.00,-9.65,2.28,-8.32,-0.30,0.50,0.01,-96.00,-8.00,-31.0022612.00,-9.65,2.28,-8.32,-0.30,0.50,0.01,-96.00,-8.00,-31.0022625.00,-8.59,1.02,-4.97,0.14,0.05,-0.26,-96.00,-8.00,-31.0022637.00,-9.29,-0.81,-4.09,0.26,-0.10,-0.30,-96.00,-8.00,-31.0022648.00,-9.29,-0.81,-4.09,0.26,-0.10,-0.30,-96.00,-8.00,-31.0022660.00,-9.70,0.50,-3.19,0.21,-0.12,-0.28,-96.00,-8.00,-31.0022673.00,-9.70,0.50,-3.19,0.21,-0.12,-0.28,-96.00,-8.00,-31.0022685.00,-9.69,-0.79,-3.57,0.13,0.01,-0.36,-96.00,-8.00,-31.0022696.00,-9.34,-3.01,-4.04,0.08,0.05,-0.23,-94.00,1.00,-35.0022708.00,-9.34,-3.01,-4.04,0.08,0.05,-0.23,-94.00,1.00,-35.0022721.00,-9.41,-2.44,-3.53,0.08,0.04,0.20,-94.00,1.00,-35.0022733.00,-9.41,-2.44,-3.53,0.08,0.04,0.20,-94.00,1.00,-35.0022744.00,-8.71,-4.75,-4.08,0.07,-0.03,0.17,-94.00,1.00,-35.0022755.00,-8.71,-4.75,-4.08,0.07,-0.03,0.17,-94.00,1.00,-35.0022767.00,-9.42,-3.45,-2.91,-0.05,-0.13,0.30,-94.00,1.00,-35.0022780.00,-9.38,-2.60,-2.39,-0.15,-0.20,0.28,-94.00,1.00,-35.0022792.00,-9.38,-2.60,-2.39,-0.15,-0.20,0.28,-94.00,1.00,-35.0022804.00,-9.39,-3.42,-2.20,-0.23,-0.23,0.20,-94.00,1.00,-35.0022816.00,-9.39,-3.42,-2.20,-0.23,-0.23,0.20,-94.00,1.00,-35.0022829.00,-9.39,-1.64,-3.63,-0.38,-0.14,0.11,-94.00,1.00,-35.0022840.00,-9.33,-0.83,-3.49,-0.44,0.03,-0.16,-94.00,-5.00,-40.0022852.00,-9.33,-0.83,-3.49,-0.44,0.03,-0.16,-94.00,-5.00,-40.0022865.00,-9.06,-1.35,-4.91,-0.35,0.10,-0.49,-94.00,-5.00,-40.0022877.00,-8.34,-0.82,-5.57,-0.17,0.14,-0.51,-94.00,-5.00,-40.0022888.00,-8.34,-0.82,-5.57,-0.17,0.14,-0.51,-94.00,-5.00,-40.0022900.00,-8.56,-0.23,-5.93,-0.04,0.13,-0.30,-94.00,-5.00,-40.0022913.00,-8.56,-0.23,-5.93,-0.04,0.13,-0.30,-94.00,-5.00,-40.0022925.00,-9.54,-0.39,-5.36,0.11,-0.08,-0.13,-94.00,-5.00,-40.0022937.00,-9.46,-0.54,-4.07,0.18,-0.16,-0.14,-94.00,-5.00,-40.0022948.00,-9.46,-0.54,-4.07,0.18,-0.16,-0.14,-94.00,-5.00,-40.0022961.00,-9.48,-0.10,-2.53,0.13,-0.15,-0.19,-94.00,-5.00,-35.0022973.00,-9.48,-0.10,-2.53,0.13,-0.15,-0.19,-94.00,-5.00,-35.0022984.00,-9.30,-0.72,-2.27,0.06,-0.02,-0.21,-94.00,-5.00,-35.0022996.00,-9.30,-0.72,-2.27,0.06,-0.02,-0.21,-94.00,-5.00,-35.0023009.00,-9.64,-1.98,-2.83,-0.02,0.16,-0.06,-94.00,-5.00,-35.0023020.00,-10.44,-0.25,-2.36,-0.09,0.25,0.30,-94.00,-5.00,-35.0023032.00,-10.44,-0.25,-2.36,-0.09,0.25,0.30,-94.00,-5.00,-35.0023044.00,-9.55,-1.79,-4.08,-0.03,0.26,0.44,-94.00,-5.00,-35.0023057.00,-9.34,-1.61,-3.17,0.02,-0.09,0.36,-94.00,-5.00,-35.0023069.00,-9.34,-1.61,-3.17,0.02,-0.09,0.36,-94.00,-5.00,-35.0023080.00,-9.26,-3.41,-3.32,-0.02,-0.17,-0.00,-96.00,-5.00,-40.0023091.00,-9.26,-3.41,-3.32,-0.02,-0.17,-0.00,-96.00,-5.00,-40.0023095.00,-9.26,-3.41,-3.32,-0.02,-0.17,-0.00,-96.00,-5.00,-40.0023171.00,-8.50,-2.25,-4.27,-0.30,-0.02,-0.03,-96.00,-5.00,-40.0023253.00,-8.97,1.33,-5.27,0.09,0.08,-0.02,-96.00,-5.00,-40.0023330.00,-9.35,-2.82,-3.14,0.20,0.05,-0.44,-96.00,-5.00,-40.0023423.00,-8.38,-4.29,-2.93,-0.18,-0.23,0.13,-96.00,-2.00,-31.0023435.00,-8.38,-4.29,-2.93,-0.18,-0.23,0.13,-96.00,-2.00,-31.0023447.00,-8.43,-3.03,-4.09,-0.37,-0.06,0.18,-96.00,-2.00,-31.0023458.00,-8.69,-1.18,-6.23,-0.41,0.08,0.16,-94.00,-2.00,-35.0023471.00,-8.69,-1.18,-6.23,-0.41,0.08,0.16,-94.00,-2.00,-35.0023483.00,-8.87,-0.41,-5.35,-0.24,0.06,-0.13,-94.00,-2.00,-35.0023494.00,-8.87,-0.41,-5.35,-0.24,0.06,-0.13,-94.00,-2.00,-35.0023506.00,-9.03,-2.56,-5.49,0.03,-0.00,-0.41,-94.00,-2.00,-35.0023519.00,-9.14,-1.28,-5.27,0.13,-0.07,-0.24,-94.00,-2.00,-35.0023531.00,-9.14,-1.28,-5.27,0.13,-0.07,-0.24,-94.00,-2.00,-35.0023542.00,-9.19,0.46,-4.62,0.11,-0.02,-0.00,-94.00,-2.00,-35.0023553.00,-9.19,0.46,-4.62,0.11,-0.02,-0.00,-94.00,-2.00,-35.0023567.00,-9.36,0.94,-4.06,0.06,-0.05,0.00,-94.00,-2.00,-35.0023578.00,-9.45,-0.83,-4.06,0.10,-0.04,-0.18,-96.00,1.00,-40.0023590.00,-9.45,-0.83,-4.06,0.10,-0.04,-0.18,-96.00,1.00,-40.0023602.00,-9.83,0.54,-2.86,0.06,-0.06,-0.23,-96.00,1.00,-40.0023615.00,-9.83,0.54,-2.86,0.06,-0.06,-0.23,-96.00,1.00,-40.0023626.00,-9.56,-1.42,-2.32,0.02,0.02,-0.40,-96.00,1.00,-40.0023638.00,-9.88,-0.84,-2.97,0.01,0.13,-0.04,-96.00,1.00,-40.0023650.00,-9.88,-0.84,-2.97,0.01,0.13,-0.04,-96.00,1.00,-40.0023663.00,-9.82,-1.36,-4.62,0.00,0.07,0.15,-96.00,1.00,-40.0023675.00,-9.82,-1.36,-4.62,0.00,0.07,0.15,-96.00,1.00,-40.0023687.00,-9.40,-3.32,-3.65,0.02,-0.12,0.07,-96.00,1.00,-40.0023698.00,-9.17,-3.21,-2.04,-0.02,-0.30,0.03,-96.00,1.00,-35.0023712.00,-9.17,-3.21,-2.04,-0.02,-0.30,0.03,-96.00,1.00,-35.0023724.00,-8.88,-4.97,-1.26,-0.10,-0.23,0.01,-96.00,1.00,-35.0023736.00,-8.88,-4.97,-1.26,-0.10,-0.23,0.01,-96.00,1.00,-35.0023748.00,-8.99,-3.86,-3.22,-0.29,-0.11,0.08,-96.00,1.00,-35.0023761.00,-8.01,-3.07,-3.23,-0.44,0.06,0.08,-96.00,1.00,-35.0023772.00,-8.01,-3.07,-3.23,-0.44,0.06,0.08,-96.00,1.00,-35.0023783.00,-8.35,-0.93,-6.46,-0.47,0.19,-0.01,-96.00,1.00,-35.0023795.00,-8.35,-0.93,-6.46,-0.47,0.19,-0.01,-96.00,1.00,-35.0023808.00,-8.42,0.02,-5.54,-0.31,0.17,-0.15,-96.00,1.00,-35.0023820.00,-8.88,-1.57,-6.49,-0.07,0.16,-0.22,-96.00,1.00,-35.0023832.00,-8.88,-1.57,-6.49,-0.07,0.16,-0.22,-96.00,1.00,-35.0023843.00,-8.68,0.76,-5.42,0.12,0.01,0.06,-94.00,4.00,-31.0023856.00,-8.68,0.76,-5.42,0.12,0.01,0.06,-94.00,4.00,-31.0023868.00,-9.42,0.56,-4.09,0.20,-0.04,0.03,-94.00,4.00,-31.0023879.00,-9.88,0.52,-3.45,0.13,-0.05,-0.07,-94.00,4.00,-31.0023891.00,-9.88,0.52,-3.45,0.13,-0.05,-0.07,-94.00,4.00,-31.0023904.00,-9.84,0.39,-3.19,0.04,0.05,-0.20,-94.00,4.00,-31.0023915.00,-9.84,0.39,-3.19,0.04,0.05,-0.20,-94.00,4.00,-31.0023927.00,-9.95,-1.83,-3.87,0.07,0.12,-0.34,-94.00,4.00,-31.0023938.00,-9.40,-2.52,-3.46,0.12,0.01,0.05,-94.00,4.00,-31.0023952.00,-9.40,-2.52,-3.46,0.12,0.01,0.05,-94.00,4.00,-31.0023963.00,-9.19,-4.03,-2.66,0.08,-0.06,0.21,-96.00,1.00,-35.0023975.00,-9.19,-4.03,-2.66,0.08,-0.06,0.21,-96.00,1.00,-35.0023986.00,-9.42,-3.96,-0.38,0.00,-0.19,0.31,-96.00,1.00,-35.0023998.00,-9.48,-3.70,-3.46,-0.16,-0.28,0.20,-96.00,1.00,-35.0024012.00,-9.48,-3.70,-3.46,-0.16,-0.28,0.20,-96.00,1.00,-35.0024024.00,-9.27,-4.21,-2.12,-0.15,-0.52,0.14,-96.00,1.00,-35.0024035.00,-9.27,-4.21,-2.12,-0.15,-0.52,0.14,-96.00,1.00,-35.0024047.00,-9.16,-3.08,-2.48,-0.33,-0.43,0.03,-96.00,1.00,-35.0024060.00,-8.04,-2.88,-4.01,-0.48,-0.13,-0.16,-96.00,1.00,-35.0024072.00,-8.04,-2.88,-4.01,-0.48,-0.13,-0.16,-96.00,1.00,-35.0024084.00,-8.82,-1.73,-5.60,-0.56,0.25,-0.12,-96.00,1.00,-44.0024097.00,-8.82,-1.73,-5.60,-0.56,0.25,-0.12,-96.00,1.00,-44.0024108.00,-8.50,-0.85,-5.90,-0.47,0.52,-0.01,-96.00,1.00,-44.0024120.00,-9.37,0.62,-7.45,-0.28,0.47,0.00,-96.00,1.00,-44.0024131.00,-9.37,0.62,-7.45,-0.28,0.47,0.00,-96.00,1.00,-44.0024143.00,-8.89,0.62,-6.80,0.02,0.17,0.07,-96.00,1.00,-44.0024156.00,-8.89,0.62,-6.80,0.02,0.17,0.07,-96.00,1.00,-44.0024168.00,-9.41,0.89,-4.24,0.17,-0.15,0.08,-96.00,1.00,-44.0024179.00,-9.26,0.84,-3.08,0.25,-0.09,-0.15,-96.00,1.00,-44.0024190.00,-9.26,0.84,-3.08,0.25,-0.09,-0.15,-96.00,1.00,-44.0024204.00,-9.88,0.51,-1.72,0.20,0.09,-0.33,-96.00,1.00,-44.0024215.00,-9.88,0.51,-1.72,0.20,0.09,-0.33,-96.00,1.00,-44.0024227.00,-9.40,-2.57,-4.30,0.12,0.20,-0.48,-96.00,1.00,-44.0024239.00,-9.92,-3.30,-2.59,0.17,0.03,-0.10,-96.00,1.00,-44.0024252.00,-9.92,-3.30,-2.59,0.17,0.03,-0.10,-96.00,1.00,-44.0024264.00,-8.79,-3.41,-1.87,0.09,-0.11,0.31,-96.00,1.00,-44.0024276.00,-8.79,-3.41,-1.87,0.09,-0.11,0.31,-96.00,1.00,-44.0024287.00,-9.29,-4.30,-3.44,-0.05,-0.08,0.32,-96.00,1.00,-44.0024299.00,-9.08,-1.80,-4.52,-0.19,-0.13,0.39,-96.00,1.00,-44.0024311.00,-9.08,-1.80,-4.52,-0.19,-0.13,0.39,-96.00,1.00,-44.0024323.00,-8.74,-2.07,-4.34,-0.17,-0.23,0.18,-96.00,1.00,-44.0024335.00,-8.74,-2.07,-4.34,-0.17,-0.23,0.18,-96.00,1.00,-44.0024348.00,-8.91,-3.47,-4.11,-0.11,-0.37,-0.03,-98.00,-2.00,-35.0024360.00,-9.30,-3.35,-2.29,-0.18,-0.40,-0.20,-98.00,-2.00,-35.0024371.00,-9.30,-3.35,-2.29,-0.18,-0.40,-0.20,-98.00,-2.00,-35.0024383.00,-9.10,-2.83,-2.98,-0.33,-0.20,-0.34,-98.00,-2.00,-35.0024397.00,-9.10,-2.83,-2.98,-0.33,-0.20,-0.34,-98.00,-2.00,-35.0024408.00,-7.97,-1.80,-3.54,-0.39,0.03,-0.40,-98.00,-2.00,-35.0024420.00,-8.49,-1.66,-4.78,-0.31,0.33,-0.20,-98.00,-2.00,-35.0024432.00,-8.49,-1.66,-4.78,-0.31,0.33,-0.20,-98.00,-2.00,-35.0024445.00,-8.90,1.36,-6.51,-0.16,0.41,0.33,-98.00,-2.00,-35.0024457.00,-8.90,1.36,-6.51,-0.16,0.41,0.33,-98.00,-2.00,-35.0024469.00,-9.56,2.35,-5.61,0.06,0.24,0.25,-96.00,1.00,-44.0024481.00,-9.41,1.89,-3.20,0.18,0.03,-0.14,-96.00,1.00,-44.0024494.00,-9.41,1.89,-3.20,0.18,0.03,-0.14,-96.00,1.00,-44.0024505.00,-10.07,-0.64,-3.05,0.13,0.06,-0.47,-96.00,1.00,-44.0024517.00,-10.07,-0.64,-3.05,0.13,0.06,-0.47,-96.00,1.00,-44.0024529.00,-9.30,-2.70,-2.20,0.09,0.02,-0.26,-96.00,1.00,-44.0024542.00,-9.17,-2.63,-2.94,-0.00,0.05,0.20,-96.00,1.00,-44.0024554.00,-9.17,-2.63,-2.94,-0.00,0.05,0.20,-96.00,1.00,-44.0024566.00,-9.11,-3.32,-3.52,-0.02,-0.07,0.28,-96.00,1.00,-44.0024577.00,-9.11,-3.32,-3.52,-0.02,-0.07,0.28,-96.00,1.00,-44.0024591.00,-9.16,-1.87,-4.31,-0.07,-0.23,0.21,-96.00,1.00,-48.0024603.00,-9.24,-2.71,-2.84,-0.10,-0.27,0.19,-96.00,1.00,-48.0024614.00,-9.24,-2.71,-2.84,-0.10,-0.27,0.19,-96.00,1.00,-48.0024626.00,-8.39,-4.15,-4.08,-0.17,-0.25,0.15,-96.00,1.00,-48.0024639.00,-8.61,-2.59,-2.64,-0.32,-0.19,0.12,-96.00,1.00,-48.0024651.00,-8.61,-2.59,-2.64,-0.32,-0.19,0.12,-96.00,1.00,-48.0024662.00,-8.31,-2.60,-3.59,-0.47,0.03,-0.07,-96.00,1.00,-48.0024674.00,-8.31,-2.60,-3.59,-0.47,0.03,-0.07,-96.00,1.00,-48.0024687.00,-7.99,-0.92,-5.75,-0.44,0.16,-0.13,-96.00,1.00,-48.0024699.00,-8.26,0.04,-5.79,-0.21,0.17,-0.24,-96.00,1.00,-48.0024711.00,-8.26,0.04,-5.79,-0.21,0.17,-0.24,-96.00,1.00,-48.0024722.00,-8.55,-1.22,-6.56,0.07,0.15,-0.15,-94.00,-2.00,-48.0024735.00,-8.55,-1.22,-6.56,0.07,0.15,-0.15,-94.00,-2.00,-48.0024747.00,-9.43,1.19,-6.17,0.13,0.03,0.00,-94.00,-2.00,-48.0024759.00,-8.93,0.84,-2.73,0.25,-0.09,-0.01,-94.00,-2.00,-48.0024771.00,-8.93,0.84,-2.73,0.25,-0.09,-0.01,-94.00,-2.00,-48.0024785.00,-9.76,0.11,-4.72,0.14,0.08,-0.22,-94.00,-2.00,-48.0024797.00,-9.76,0.11,-4.72,0.14,0.08,-0.22,-94.00,-2.00,-48.0024808.00,-9.63,0.05,-2.36,0.17,0.03,-0.38,-94.00,-2.00,-48.0024820.00,-8.94,-3.47,-2.98,0.20,0.10,-0.54,-94.00,-2.00,-48.0024833.00,-8.94,-3.47,-2.98,0.20,0.10,-0.54,-94.00,-2.00,-48.0024845.00,-10.29,-1.56,-1.72,0.13,0.10,0.02,-98.00,7.00,-48.0024856.00,-10.29,-1.56,-1.72,0.13,0.10,0.02,-98.00,7.00,-48.0024867.00,-9.08,-3.21,-2.93,-0.03,0.08,0.28,-98.00,7.00,-48.0024881.00,-9.78,-2.03,-2.12,-0.04,-0.09,0.47,-98.00,7.00,-48.0024892.00,-9.78,-2.03,-2.12,-0.04,-0.09,0.47,-98.00,7.00,-48.0024904.00,-9.24,-2.38,-2.69,-0.07,-0.20,0.35,-98.00,7.00,-48.0024915.00,-9.24,-2.38,-2.69,-0.07,-0.20,0.35,-98.00,7.00,-48.0024928.00,-8.86,-4.89,-3.51,-0.14,-0.14,0.14,-98.00,7.00,-48.0024940.00,-8.77,-3.50,-3.19,-0.26,-0.13,0.12,-98.00,7.00,-48.0024951.00,-8.77,-3.50,-3.19,-0.26,-0.13,0.12,-98.00,7.00,-48.0024963.00,-9.26,-3.76,-3.70,-0.29,-0.17,-0.13,-96.00,1.00,-44.0024976.00,-9.26,-3.76,-3.70,-0.29,-0.17,-0.13,-96.00,1.00,-44.0024987.00,-8.76,-2.07,-4.04,-0.33,-0.06,-0.20,-96.00,1.00,-44.0024999.00,-8.80,-1.90,-3.73,-0.33,0.03,-0.30,-96.00,1.00,-44.0025011.00,-8.80,-1.90,-3.73,-0.33,0.03,-0.30,-96.00,1.00,-44.0025024.00,-9.16,-0.52,-6.58,-0.15,0.17,-0.20,-96.00,1.00,-44.0025036.00,-9.16,-0.52,-6.58,-0.15,0.17,-0.20,-96.00,1.00,-44.0025048.00,-8.74,-0.87,-6.36,0.15,0.11,0.02,-96.00,1.00,-44.0025060.00,-9.66,1.97,-4.74,0.22,-0.02,0.15,-96.00,1.00,-44.0025073.00,-9.66,1.97,-4.74,0.22,-0.02,0.15,-96.00,1.00,-44.0025084.00,-9.46,-0.31,-3.88,0.28,-0.02,-0.18,-98.00,1.00,-40.0025096.00,-9.46,-0.31,-3.88,0.28,-0.02,-0.18,-98.00,1.00,-40.0025108.00,-9.45,0.27,-2.46,0.17,0.07,-0.18,-98.00,1.00,-40.0025121.00,-9.41,-0.78,-3.49,0.07,0.25,-0.13,-98.00,1.00,-40.0025132.00,-9.41,-0.78,-3.49,0.07,0.25,-0.13,-98.00,1.00,-40.0025144.00,-10.25,-0.62,-3.76,0.00,0.18,-0.06,-98.00,1.00,-40.0025156.00,-10.25,-0.62,-3.76,0.00,0.18,-0.06,-98.00,1.00,-40.0025170.00,-10.27,-2.02,-1.58,0.05,-0.00,0.06,-98.00,1.00,-40.0025182.00,-10.75,-0.31,-1.58,-0.02,-0.13,0.27,-98.00,1.00,-40.0025193.00,-10.75,-0.31,-1.58,-0.02,-0.13,0.27,-98.00,1.00,-40.0025204.00,-8.84,-3.55,-3.29,-0.06,-0.14,0.17,-98.00,1.00,-40.0025218.00,-8.84,-3.55,-3.29,-0.06,-0.14,0.17,-98.00,1.00,-40.0025230.00,-8.20,-4.83,-3.59,-0.21,-0.19,0.11,-96.00,1.00,-40.0025241.00,-8.77,-4.37,-3.63,-0.27,-0.27,0.05,-96.00,1.00,-40.0025253.00,-8.77,-4.37,-3.63,-0.27,-0.27,0.05,-96.00,1.00,-40.0025266.00,-8.82,-3.75,-2.55,-0.30,-0.25,-0.03,-96.00,1.00,-40.0025278.00,-8.82,-3.75,-2.55,-0.30,-0.25,-0.03,-96.00,1.00,-40.0025290.00,-8.16,-2.33,-5.30,-0.34,-0.06,-0.20,-96.00,1.00,-40.0025302.00,-8.07,-1.75,-4.81,-0.28,0.05,-0.29,-96.00,1.00,-40.0025315.00,-8.07,-1.75,-4.81,-0.28,0.05,-0.29,-96.00,1.00,-40.0025327.00,-7.59,-1.66,-4.75,-0.23,0.21,-0.28,-96.00,1.00,-40.0025338.00,-7.59,-1.66,-4.75,-0.23,0.21,-0.28,-96.00,1.00,-40.0025350.00,-8.53,-0.10,-6.81,-0.07,0.17,-0.07,-98.00,1.00,-44.0025363.00,-8.95,-0.22,-4.98,0.13,0.08,0.10,-98.00,1.00,-44.0025375.00,-8.95,-0.22,-4.98,0.13,0.08,0.10,-98.00,1.00,-44.0025386.00,-9.70,1.36,-3.74,0.11,0.03,0.08,-98.00,1.00,-44.0025398.00,-9.70,1.36,-3.74,0.11,0.03,0.08,-98.00,1.00,-44.0025410.00,-9.76,0.83,-3.17,-0.02,0.11,-0.11,-98.00,1.00,-44.0025422.00,-10.27,-0.38,-3.44,-0.04,0.15,-0.28,-98.00,1.00,-44.0025433.00,-10.27,-0.38,-3.44,-0.04,0.15,-0.28,-98.00,1.00,-44.0025444.00,-10.01,-1.95,-2.74,0.10,0.11,-0.06,-98.00,1.00,-44.0025458.00,-10.01,-1.95,-2.74,0.10,0.11,-0.06,-98.00,1.00,-44.0025469.00,-9.06,-1.75,-2.49,0.15,-0.03,0.23,-96.00,4.00,-48.0025481.00,-9.65,-2.30,-2.21,0.12,-0.10,0.29,-96.00,4.00,-48.0025493.00,-9.65,-2.30,-2.21,0.12,-0.10,0.29,-96.00,4.00,-48.0025506.00,-9.38,-3.74,-2.93,-0.02,-0.16,0.16,-96.00,4.00,-48.0025518.00,-9.38,-3.74,-2.93,-0.02,-0.16,0.16,-96.00,4.00,-48.0025530.00,-9.46,-3.74,-2.49,-0.11,-0.23,0.20,-96.00,4.00,-48.0025541.00,-8.65,-4.03,-3.25,-0.16,-0.26,0.18,-96.00,4.00,-48.0025554.00,-8.65,-4.03,-3.25,-0.16,-0.26,0.18,-96.00,4.00,-48.0025566.00,-9.37,-2.20,-3.19,-0.26,-0.26,0.07,-96.00,4.00,-48.0025577.00,-9.37,-2.20,-3.19,-0.26,-0.26,0.07,-96.00,4.00,-48.0025589.00,-8.79,-2.83,-3.28,-0.28,-0.19,-0.25,-98.00,4.00,-44.0025593.00,-8.79,-2.83,-3.28,-0.28,-0.19,-0.25,-98.00,4.00,-44.0025672.00,-9.90,1.47,-6.90,0.02,0.22,-0.01,-98.00,4.00,-44.0025751.00,-8.41,-2.98,-3.83,-0.01,0.13,-0.02,-96.00,4.00,-53.0025830.00,-8.93,-6.03,-1.91,0.05,-0.34,-0.11,-96.00,4.00,-53.0025921.00,-9.41,-1.01,-4.54,-0.06,0.04,-0.06,-96.00,4.00,-48.0025932.00,-9.41,-1.01,-4.54,-0.06,0.04,-0.06,-96.00,4.00,-48.0025944.00,-8.73,0.07,-4.96,-0.05,0.07,-0.03,-96.00,4.00,-48.0025955.00,-8.73,0.07,-4.96,-0.05,0.07,-0.03,-96.00,4.00,-48.0025969.00,-9.18,-0.50,-5.08,-0.04,0.07,-0.10,-96.00,-2.00,-48.0025981.00,-9.97,1.73,-4.38,-0.03,0.00,-0.04,-96.00,-2.00,-48.0025992.00,-9.97,1.73,-4.38,-0.03,0.00,-0.04,-96.00,-2.00,-48.0026004.00,-9.90,2.38,-2.16,0.05,-0.10,-0.20,-96.00,-2.00,-48.0026018.00,-9.90,2.38,-2.16,0.05,-0.10,-0.20,-96.00,-2.00,-48.0026030.00,-9.36,-1.66,-2.86,-0.01,0.06,-0.55,-96.00,-2.00,-48.0026042.00,-10.02,-0.44,-1.87,-0.08,0.16,-0.15,-96.00,-2.00,-48.0026053.00,-10.02,-0.44,-1.87,-0.08,0.16,-0.15,-96.00,-2.00,-48.0026067.00,-9.67,-2.30,-3.71,-0.02,0.21,0.07,-96.00,-2.00,-48.0026078.00,-9.67,-2.30,-3.71,-0.02,0.21,0.07,-96.00,-2.00,-48.0026090.00,-8.20,-4.46,-2.89,0.02,-0.05,0.23,-96.00,-2.00,-48.0026102.00,-8.55,-4.89,-3.50,-0.11,-0.21,0.20,-98.00,4.00,-48.0026114.00,-8.55,-4.89,-3.50,-0.11,-0.21,0.20,-98.00,4.00,-48.0026126.00,-8.94,-4.73,-3.25,-0.15,-0.30,0.19,-98.00,4.00,-48.0026137.00,-8.94,-4.73,-3.25,-0.15,-0.30,0.19,-98.00,4.00,-48.0026149.00,-8.54,-4.40,-2.41,-0.25,-0.19,0.22,-98.00,4.00,-48.0026162.00,-7.96,-2.86,-2.83,-0.34,-0.15,0.04,-98.00,4.00,-48.0026173.00,-7.96,-2.86,-2.83,-0.34,-0.15,0.04,-98.00,4.00,-48.0026185.00,-8.44,-1.46,-4.88,-0.35,-0.07,-0.20,-98.00,4.00,-48.0026196.00,-8.44,-1.46,-4.88,-0.35,-0.07,-0.20,-98.00,4.00,-48.0026209.00,-9.27,-1.59,-4.65,-0.26,0.03,-0.36,-98.00,4.00,-48.0026221.00,-8.58,-0.95,-7.20,-0.03,0.11,-0.26,-96.00,7.00,-53.0026232.00,-8.58,-0.95,-7.20,-0.03,0.11,-0.26,-96.00,7.00,-53.0026244.00,-9.35,1.52,-6.34,0.17,-0.04,-0.06,-96.00,7.00,-53.0026257.00,-9.35,1.52,-6.34,0.17,-0.04,-0.06,-96.00,7.00,-53.0026269.00,-9.15,0.87,-4.67,0.30,-0.11,-0.09,-96.00,7.00,-53.0026280.00,-9.04,-0.51,-2.64,0.24,-0.05,-0.25,-96.00,7.00,-53.0026292.00,-9.04,-0.51,-2.64,0.24,-0.05,-0.25,-96.00,7.00,-53.0026305.00,-9.62,-0.64,-1.94,0.12,-0.01,-0.44,-96.00,7.00,-53.0026317.00,-9.62,-0.64,-1.94,0.12,-0.01,-0.44,-96.00,7.00,-53.0026329.00,-9.75,-1.37,-2.02,0.04,0.11,-0.31,-96.00,7.00,-53.0026340.00,-9.75,-1.37,-2.02,0.04,0.11,-0.31,-96.00,7.00,-53.0026353.00,-9.91,-1.53,-2.83,-0.09,0.24,0.05,-98.00,14.00,-48.0026365.00,-9.48,-2.47,-4.04,-0.05,0.18,0.24,-98.00,14.00,-48.0026377.00,-9.48,-2.47,-4.04,-0.05,0.18,0.24,-98.00,14.00,-48.0026389.00,-9.41,-3.59,-3.00,0.01,-0.06,0.28,-98.00,14.00,-48.0026402.00,-8.42,-6.04,-4.36,0.01,-0.13,0.20,-98.00,14.00,-48.0026413.00,-8.42,-6.04,-4.36,0.01,-0.13,0.20,-98.00,14.00,-48.0026425.00,-8.86,-4.20,-3.62,-0.05,-0.20,0.42,-98.00,14.00,-48.0026436.00,-8.86,-4.20,-3.62,-0.05,-0.20,0.42,-98.00,14.00,-48.0026449.00,-8.78,-3.95,-3.47,-0.19,-0.10,0.38,-98.00,14.00,-48.0026461.00,-8.97,-2.48,-4.30,-0.29,-0.10,0.23,-96.00,4.00,-53.0026472.00,-8.97,-2.48,-4.30,-0.29,-0.10,0.23,-96.00,4.00,-53.0026484.00,-9.09,-1.44,-4.34,-0.26,-0.17,-0.20,-96.00,4.00,-53.0026497.00,-9.09,-1.44,-4.34,-0.26,-0.17,-0.20,-96.00,4.00,-53.0026508.00,-8.65,-3.09,-4.24,-0.15,-0.12,-0.61,-96.00,4.00,-53.0026520.00,-8.65,-3.09,-4.24,-0.15,-0.12,-0.61,-96.00,4.00,-53.0026532.00,-8.75,-2.67,-3.30,-0.17,-0.01,-0.55,-96.00,4.00,-53.0026545.00,-9.83,-2.09,-5.36,-0.14,0.17,-0.24,-96.00,4.00,-53.0026556.00,-9.83,-2.09,-5.36,-0.14,0.17,-0.24,-96.00,4.00,-53.0026568.00,-10.02,1.68,-4.94,-0.05,0.11,0.07,-96.00,4.00,-53.0026580.00,-10.02,1.68,-4.94,-0.05,0.11,0.07,-96.00,4.00,-53.0026593.00,-9.29,0.99,-3.67,0.13,0.03,-0.04,-96.00,4.00,-53.0026605.00,-10.17,1.26,-3.30,0.13,-0.09,-0.11,-96.00,11.00,-53.0026617.00,-10.17,1.26,-3.30,0.13,-0.09,-0.11,-96.00,11.00,-53.0026629.00,-9.84,1.46,-1.16,0.09,-0.13,-0.47,-96.00,11.00,-53.0026642.00,-9.26,-4.20,-2.84,0.07,0.22,-0.72,-96.00,11.00,-53.0026653.00,-9.26,-4.20,-2.84,0.07,0.22,-0.72,-96.00,11.00,-53.0026665.00,-10.20,-1.49,-3.40,-0.02,0.27,0.04,-96.00,11.00,-53.0026677.00,-10.20,-1.49,-3.40,-0.02,0.27,0.04,-96.00,11.00,-53.0026690.00,-9.16,-2.10,-3.20,0.11,0.10,0.34,-96.00,11.00,-53.0026701.00,-9.45,-2.75,-2.18,0.02,-0.16,0.28,-96.00,11.00,-53.0026713.00,-9.45,-2.75,-2.18,0.02,-0.16,0.28,-96.00,11.00,-53.0026724.00,-8.72,-3.88,-2.17,-0.07,-0.26,0.23,-96.00,14.00,-57.0026737.00,-8.72,-3.88,-2.17,-0.07,-0.26,0.23,-96.00,14.00,-57.0026748.00,-8.67,-5.14,-2.07,-0.16,-0.26,0.28,-96.00,14.00,-57.0026760.00,-8.67,-5.14,-2.07,-0.16,-0.26,0.28,-96.00,14.00,-57.0026771.00,-8.78,-5.13,-3.38,-0.20,-0.25,0.44,-96.00,14.00,-57.0026785.00,-9.35,-2.76,-3.12,-0.17,-0.38,0.41,-96.00,14.00,-57.0026796.00,-9.35,-2.76,-3.12,-0.17,-0.38,0.41,-96.00,14.00,-57.0026808.00,-8.84,-2.38,-3.92,-0.08,-0.45,-0.08,-96.00,14.00,-57.0026820.00,-8.84,-2.38,-3.92,-0.08,-0.45,-0.08,-96.00,14.00,-57.0026833.00,-9.21,-2.92,-3.64,0.01,-0.32,-0.31,-96.00,14.00,-57.0026844.00,-8.79,-1.12,-4.37,0.03,-0.04,-0.11,-98.00,7.00,-57.0026856.00,-8.79,-1.12,-4.37,0.03,-0.04,-0.11,-98.00,7.00,-57.0026867.00,-8.82,0.06,-3.90,-0.01,0.30,0.05,-98.00,7.00,-57.0026880.00,-8.82,0.06,-3.90,-0.01,0.30,0.05,-98.00,7.00,-57.0026892.00,-10.06,1.46,-4.30,-0.13,0.53,0.14,-98.00,7.00,-57.0026903.00,-8.79,0.11,-5.10,-0.21,0.60,0.04,-98.00,7.00,-57.0026914.00,-8.79,0.11,-5.10,-0.21,0.60,0.04,-98.00,7.00,-57.0026928.00,-10.11,0.97,-3.80,-0.17,0.26,-0.02,-98.00,7.00,-57.0026939.00,-10.11,0.97,-3.80,-0.17,0.26,-0.02,-98.00,7.00,-57.0026951.00,-10.64,1.74,-3.40,0.12,-0.14,-0.30,-98.00,7.00,-57.0026963.00,-10.00,-1.96,-2.25,0.35,-0.29,-0.39,-96.00,7.00,-53.0026976.00,-10.00,-1.96,-2.25,0.35,-0.29,-0.39,-96.00,7.00,-53.0026987.00,-9.88,-3.17,-1.05,0.27,-0.33,-0.03,-96.00,7.00,-53.0026999.00,-9.88,-3.17,-1.05,0.27,-0.33,-0.03,-96.00,7.00,-53.0027012.00,-7.99,-6.81,-2.34,0.02,-0.19,-0.04,-96.00,7.00,-53.0027025.00,-9.18,-4.44,-2.02,-0.20,-0.24,0.26,-96.00,7.00,-53.0027037.00,-9.18,-4.44,-2.02,-0.20,-0.24,0.26,-96.00,7.00,-53.0027049.00,-9.28,-3.02,-3.85,-0.31,-0.33,0.25,-96.00,7.00,-53.0027060.00,-9.28,-3.02,-3.85,-0.31,-0.33,0.25,-96.00,7.00,-53.0027074.00,-8.66,-3.12,-3.22,-0.18,-0.56,-0.00,-96.00,7.00,-53.0027085.00,-8.49,-4.05,-2.27,-0.13,-0.45,-0.25,-96.00,7.00,-53.0027097.00,-8.49,-4.05,-2.27,-0.13,-0.45,-0.25,-96.00,7.00,-53.0027108.00,-8.72,-3.33,-3.34,-0.23,-0.07,-0.22,-100.00,11.00,-66.0027122.00,-8.60,-2.11,-3.40,-0.24,0.28,-0.19,-100.00,11.00,-66.0027134.00,-8.60,-2.11,-3.40,-0.24,0.28,-0.19,-100.00,11.00,-66.0027145.00,-9.19,-1.45,-5.90,-0.25,0.45,-0.36,-100.00,11.00,-66.0027157.00,-9.19,-1.45,-5.90,-0.25,0.45,-0.36,-100.00,11.00,-66.0027170.00,-9.44,-1.46,-5.87,-0.23,0.34,-0.32,-100.00,11.00,-66.0027182.00,-9.30,0.96,-5.95,0.00,0.00,-0.15,-100.00,11.00,-66.0027194.00,-9.30,0.96,-5.95,0.00,0.00,-0.15,-100.00,11.00,-66.0027206.00,-9.57,-0.66,-3.75,0.32,-0.28,-0.17,-100.00,11.00,-66.0027219.00,-9.57,-0.66,-3.75,0.32,-0.28,-0.17,-100.00,11.00,-66.0027231.00,-9.44,-0.36,-2.02,0.30,-0.31,-0.15,-98.00,14.00,-61.0027242.00,-9.60,-1.72,-1.20,0.16,-0.15,-0.38,-98.00,14.00,-61.0027254.00,-9.60,-1.72,-1.20,0.16,-0.15,-0.38,-98.00,14.00,-61.0027267.00,-9.42,-3.51,-1.30,0.03,0.07,-0.39,-98.00,14.00,-61.0027279.00,-9.42,-3.51,-1.30,0.03,0.07,-0.39,-98.00,14.00,-61.0027291.00,-9.17,-4.00,-1.30,-0.08,0.29,0.03,-98.00,14.00,-61.0027303.00,-9.19,-4.26,-3.00,-0.26,0.41,0.35,-98.00,14.00,-61.0027316.00,-9.19,-4.26,-3.00,-0.26,0.41,0.35,-98.00,14.00,-61.0027328.00,-9.24,-1.82,-3.48,-0.43,0.22,0.63,-98.00,14.00,-61.0027340.00,-9.24,-1.82,-3.48,-0.43,0.22,0.63,-98.00,14.00,-61.0027352.00,-8.40,-3.14,-5.86,-0.52,0.15,0.46,-100.00,14.00,-57.0027365.00,-8.84,-1.82,-4.17,-0.34,-0.22,0.29,-100.00,14.00,-57.0027377.00,-8.84,-1.82,-4.17,-0.34,-0.22,0.29,-100.00,14.00,-57.0027389.00,-8.94,-1.82,-4.17,-0.12,-0.25,0.11,-100.00,14.00,-57.0027402.00,-8.95,-3.19,-2.93,-0.01,-0.34,-0.06,-100.00,14.00,-57.0027413.00,-8.95,-3.19,-2.93,-0.01,-0.34,-0.06,-100.00,14.00,-57.0027425.00,-8.65,-2.33,-3.76,-0.05,-0.29,-0.17,-100.00,14.00,-57.0027437.00,-8.65,-2.33,-3.76,-0.05,-0.29,-0.17,-100.00,14.00,-57.0027450.00,-9.02,-2.26,-3.29,-0.11,-0.22,-0.44,-100.00,14.00,-57.0027461.00,-9.02,-2.26,-3.29,-0.11,-0.22,-0.44,-100.00,14.00,-57.0027473.00,-8.80,-3.03,-2.50,-0.06,-0.02,-0.47,-96.00,14.00,-66.0027484.00,-8.84,-3.50,-3.07,-0.06,0.19,-0.19,-96.00,14.00,-66.0027497.00,-8.84,-3.50,-3.07,-0.06,0.19,-0.19,-96.00,14.00,-66.0027509.00,-9.18,-2.44,-5.38,-0.08,0.21,0.10,