time,ax,ay,az,gx,gy,gz,mx,my,mz222.00,-0.71,6.23,-7.99,-0.01,0.02,0.02,1.00,-18.00,-44.00233.00,-0.71,6.23,-7.99,-0.01,0.02,0.02,1.00,-18.00,-44.00245.00,-0.70,6.22,-7.99,-0.01,0.02,0.02,1.00,-18.00,-44.00257.00,-0.72,6.23,-7.97,-0.01,0.02,0.02,1.00,-18.00,-44.00270.00,-0.72,6.23,-7.97,-0.01,0.02,0.02,1.00,-18.00,-44.00281.00,-0.72,6.23,-7.98,-0.01,0.02,0.02,1.00,-18.00,-44.00293.00,-0.72,6.23,-7.98,-0.01,0.02,0.02,1.00,-18.00,-44.00305.00,-0.70,6.22,-7.98,-0.01,0.02,0.02,1.00,-18.00,-44.00318.00,-0.70,6.23,-7.97,-0.01,0.02,0.02,1.00,-18.00,-44.00329.00,-0.70,6.23,-7.97,-0.01,0.02,0.02,1.00,-18.00,-44.00341.00,-0.70,6.23,-7.99,-0.01,0.02,0.02,1.00,-18.00,-44.00353.00,-0.70,6.23,-7.99,-0.01,0.02,0.02,1.00,-18.00,-44.00365.00,-0.70,6.22,-7.97,-0.01,0.02,0.02,1.00,-18.00,-44.00378.00,-0.69,6.23,-7.96,-0.01,0.02,0.02,1.00,-18.00,-44.00389.00,-0.69,6.23,-7.96,-0.01,0.02,0.02,1.00,-18.00,-44.00401.00,-0.70,6.24,-7.98,-0.01,0.02,0.02,1.00,-18.00,-44.00413.00,-0.70,6.24,-7.98,-0.01,0.02,0.02,1.00,-18.00,-44.00426.00,-0.70,6.23,-7.97,-0.01,0.02,0.02,1.00,-18.00,-44.00438.00,-0.69,6.23,-7.98,-0.01,0.02,0.02,1.00,-18.00,-44.00450.00,-0.69,6.23,-7.98,-0.01,0.02,0.02,1.00,-18.00,-44.00461.00,-0.71,6.23,-7.99,-0.01,0.02,0.02,3.00,-20.00,-44.00474.00,-0.70,6.22,-7.98,-0.01,0.02,0.02,3.00,-20.00,-44.00485.00,-0.70,6.22,-7.98,-0.01,0.02,0.02,3.00,-20.00,-44.00497.00,-0.70,6.21,-7.98,-0.01,0.02,0.02,3.00,-20.00,-44.00509.00,-0.70,6.21,-7.98,-0.01,0.02,0.02,3.00,-20.00,-44.00521.00,-0.70,6.23,-7.98,-0.00,0.02,0.02,3.00,-20.00,-44.00534.00,-0.70,6.23,-7.99,-0.00,0.02,0.02,3.00,-20.00,-44.00546.00,-0.70,6.23,-7.99,-0.00,0.02,0.02,3.00,-20.00,-44.00558.00,-0.72,6.23,-7.98,-0.01,0.02,0.02,3.00,-20.00,-44.00570.00,-0.72,6.23,-7.98,-0.01,0.02,0.02,3.00,-20.00,-44.00583.00,-0.70,6.23,-7.98,-0.01,0.02,0.02,1.00,-16.00,-44.00594.00,-0.70,6.23,-7.99,-0.01,0.02,0.02,1.00,-16.00,-44.00605.00,-0.70,6.23,-7.99,-0.01,0.02,0.02,1.00,-16.00,-44.00617.00,-0.71,6.23,-7.97,-0.01,0.02,0.02,1.00,-16.00,-44.00630.00,-0.71,6.23,-7.97,-0.01,0.02,0.02,1.00,-16.00,-44.00642.00,-0.70,6.22,-7.97,-0.01,0.02,0.02,1.00,-16.00,-44.00654.00,-0.70,6.23,-7.98,-0.01,0.02,0.02,1.00,-16.00,-44.00666.00,-0.70,6.23,-7.98,-0.01,0.02,0.02,1.00,-16.00,-44.00679.00,-0.69,6.23,-7.97,-0.01,0.02,0.02,1.00,-16.00,-44.00691.00,-0.69,6.23,-7.97,-0.01,0.02,0.02,1.00,-16.00,-44.00702.00,-0.69,6.23,-7.99,-0.01,0.02,0.02,1.00,-18.00,-46.00714.00,-0.69,6.23,-7.99,-0.01,0.02,0.02,1.00,-18.00,-46.00725.00,-0.71,6.22,-7.99,-0.01,0.02,0.02,1.00,-18.00,-46.00737.00,-0.70,6.21,-7.97,-0.01,0.02,0.02,1.00,-18.00,-46.00749.00,-0.70,6.21,-7.97,-0.01,0.02,0.02,1.00,-18.00,-46.00760.00,-0.71,6.23,-7.98,-0.01,0.02,0.02,1.00,-18.00,-46.00772.00,-0.71,6.23,-7.98,-0.01,0.02,0.02,1.00,-18.00,-46.00785.00,-0.71,6.24,-7.98,-0.01,0.02,0.02,1.00,-18.00,-46.00796.00,-0.69,6.23,-7.97,-0.01,0.02,0.02,1.00,-18.00,-46.00808.00,-0.69,6.23,-7.97,-0.01,0.02,0.02,1.00,-18.00,-46.00819.00,-0.71,6.24,-7.98,-0.01,0.02,0.02,1.00,-18.00,-46.00832.00,-0.71,6.24,-7.98,-0.01,0.02,0.02,1.00,-18.00,-46.00844.00,-0.73,6.23,-7.97,-0.01,0.02,0.02,1.00,-18.00,-46.00856.00,-0.70,6.24,-7.98,-0.01,0.02,0.02,1.00,-18.00,-46.00867.00,-0.70,6.24,-7.98,-0.01,0.02,0.02,1.00,-18.00,-46.00880.00,-0.71,6.23,-7.96,-0.01,0.02,0.02,1.00,-18.00,-46.00892.00,-0.71,6.23,-7.96,-0.01,0.02,0.02,1.00,-18.00,-46.00904.00,-0.69,6.23,-7.97,-0.01,0.02,0.02,1.00,-18.00,-46.00916.00,-0.71,6.23,-7.96,-0.01,0.02,0.02,1.00,-18.00,-46.00928.00,-0.71,6.23,-7.96,-0.01,0.02,0.02,1.00,-18.00,-46.00941.00,-0.71,6.23,-7.96,-0.01,0.02,0.02,1.00,-18.00,-46.00952.00,-0.71,6.23,-7.96,-0.01,0.02,0.02,1.00,-18.00,-46.00964.00,-0.71,6.23,-8.01,-0.01,0.02,0.02,3.00,-18.00,-42.00976.00,-0.70,6.24,-7.97,-0.03,0.01,0.02,3.00,-18.00,-42.00979.00,-0.70,6.24,-7.97,-0.03,0.01,0.02,3.00,-18.00,-42.001057.00,-0.71,6.21,-7.98,-0.04,0.01,0.01,3.00,-18.00,-42.001135.00,-0.18,6.20,-8.01,-0.16,-0.08,0.05,1.00,-18.00,-42.001212.00,-0.68,6.14,-8.03,-0.10,-0.05,0.06,1.00,-18.00,-37.001301.00,-0.99,6.58,-7.91,0.22,0.22,0.19,1.00,-18.00,-37.001312.00,-0.99,6.58,-7.91,0.22,0.22,0.19,1.00,-18.00,-37.001324.00,-0.72,6.40,-7.83,0.14,0.23,0.01,1.00,-18.00,-37.001336.00,-0.68,6.36,-7.87,0.05,0.09,0.02,1.00,-20.00,-37.001349.00,-0.68,6.36,-7.87,0.05,0.09,0.02,1.00,-20.00,-37.001360.00,-0.67,6.34,-7.86,0.01,0.03,0.03,1.00,-20.00,-37.001372.00,-0.67,6.34,-7.86,0.01,0.03,0.03,1.00,-20.00,-37.001384.00,-0.66,6.34,-7.88,0.00,0.03,0.03,1.00,-20.00,-37.001396.00,-0.65,6.34,-7.91,0.00,0.03,0.03,1.00,-20.00,-37.001409.00,-0.65,6.34,-7.91,0.00,0.03,0.03,1.00,-20.00,-37.001420.00,-0.66,6.33,-7.88,-0.00,0.02,0.03,1.00,-20.00,-37.001432.00,-0.66,6.33,-7.88,-0.00,0.02,0.03,1.00,-20.00,-37.001443.00,-0.65,6.33,-7.89,-0.00,0.02,0.02,1.00,-20.00,-37.001456.00,-0.67,6.33,-7.88,-0.00,0.02,0.02,1.00,-18.00,-39.001468.00,-0.67,6.33,-7.88,-0.00,0.02,0.02,1.00,-18.00,-39.001479.00,-0.65,6.33,-7.90,-0.00,0.02,0.02,1.00,-18.00,-39.001491.00,-0.65,6.33,-7.90,-0.00,0.02,0.02,1.00,-18.00,-39.001504.00,-0.66,6.35,-7.88,-0.00,0.02,0.02,1.00,-18.00,-39.001516.00,-0.66,6.35,-7.87,-0.00,0.02,0.02,1.00,-18.00,-39.001527.00,-0.66,6.35,-7.87,-0.00,0.02,0.02,1.00,-18.00,-39.001540.00,-0.65,6.32,-7.87,-0.00,0.02,0.02,1.00,-18.00,-39.001553.00,-0.65,6.32,-7.87,-0.00,0.02,0.02,1.00,-18.00,-39.001564.00,-0.65,6.32,-7.91,-0.00,0.02,0.02,1.00,-18.00,-39.001576.00,-0.64,6.33,-7.91,-0.00,0.02,0.02,1.00,-16.00,-42.001588.00,-0.64,6.33,-7.91,-0.00,0.02,0.02,1.00,-16.00,-42.001601.00,-0.65,6.33,-7.89,-0.00,0.02,0.02,1.00,-16.00,-42.001613.00,-0.65,6.33,-7.89,-0.00,0.02,0.02,1.00,-16.00,-42.001625.00,-0.66,6.34,-7.89,-0.00,0.02,0.02,1.00,-16.00,-42.001637.00,-0.66,6.33,-7.91,-0.00,0.02,0.02,1.00,-16.00,-42.001648.00,-0.66,6.33,-7.91,-0.00,0.02,0.02,1.00,-16.00,-42.001661.00,-0.65,6.34,-7.87,-0.00,0.02,0.02,1.00,-16.00,-42.001673.00,-0.65,6.34,-7.87,-0.00,0.02,0.02,1.00,-16.00,-42.001685.00,-0.67,6.34,-7.86,-0.01,0.02,0.02,1.00,-16.00,-42.001696.00,-0.66,6.33,-7.89,-0.00,0.02,0.02,1.00,-16.00,-42.001709.00,-0.66,6.33,-7.89,-0.00,0.02,0.02,1.00,-16.00,-42.001720.00,-0.65,6.34,-7.89,-0.01,0.02,0.02,0.00,-20.00,-37.001731.00,-0.65,6.34,-7.89,-0.01,0.02,0.02,0.00,-20.00,-37.001743.00,-0.65,6.33,-7.90,-0.00,0.02,0.02,0.00,-20.00,-37.001756.00,-0.67,6.33,-7.90,-0.00,0.02,0.02,0.00,-20.00,-37.001768.00,-0.67,6.33,-7.90,-0.00,0.02,0.02,0.00,-20.00,-37.001780.00,-0.65,6.32,-7.89,-0.00,0.02,0.02,0.00,-20.00,-37.001791.00,-0.65,6.32,-7.89,-0.00,0.02,0.02,0.00,-20.00,-37.001804.00,-0.64,6.26,-7.81,-0.01,0.02,0.02,0.00,-20.00,-37.001815.00,-0.64,6.26,-7.81,-0.01,0.02,0.02,0.00,-20.00,-37.001826.00,-0.66,6.40,-7.99,0.00,0.02,0.02,0.00,-20.00,-37.001838.00,-0.62,6.33,-7.89,-0.01,0.02,0.02,0.00,-18.00,-37.001851.00,-0.62,6.33,-7.89,-0.01,0.02,0.02,0.00,-18.00,-37.001862.00,-0.64,6.30,-7.88,-0.00,0.02,0.02,0.00,-18.00,-37.001874.00,-0.64,6.30,-7.88,-0.00,0.02,0.02,0.00,-18.00,-37.001886.00,-0.66,6.30,-7.90,-0.00,0.02,0.02,0.00,-18.00,-37.001898.00,-0.64,6.32,-7.92,-0.00,0.02,0.02,0.00,-18.00,-37.001911.00,-0.64,6.32,-7.92,-0.00,0.02,0.02,0.00,-18.00,-37.001922.00,-0.64,6.32,-7.91,-0.01,0.02,0.02,0.00,-18.00,-37.001934.00,-0.64,6.32,-7.91,-0.01,0.02,0.02,0.00,-18.00,-37.001945.00,-0.64,6.33,-7.91,-0.01,0.02,0.02,0.00,-18.00,-37.001958.00,-0.65,6.34,-7.93,-0.00,0.02,0.02,0.00,-18.00,-42.001970.00,-0.65,6.34,-7.93,-0.00,0.02,0.02,0.00,-18.00,-42.001981.00,-0.65,6.30,-7.91,-0.01,0.02,0.02,0.00,-18.00,-42.001993.00,-0.65,6.30,-7.91,-0.01,0.02,0.02,0.00,-18.00,-42.002006.00,-0.65,6.33,-7.92,-0.01,0.02,0.02,0.00,-18.00,-42.002017.00,-0.65,6.34,-7.90,-0.01,0.02,0.02,0.00,-18.00,-42.002029.00,-0.65,6.34,-7.90,-0.01,0.02,0.02,0.00,-18.00,-42.002040.00,-0.65,6.33,-7.88,-0.01,0.02,0.02,0.00,-18.00,-42.002053.00,-0.65,6.33,-7.88,-0.01,0.02,0.02,0.00,-18.00,-42.002065.00,-0.64,6.33,-7.87,-0.01,0.02,0.02,0.00,-18.00,-42.002077.00,-0.66,6.32,-7.89,-0.01,0.02,0.02,0.00,-18.00,-37.002089.00,-0.66,6.32,-7.89,-0.01,0.02,0.02,0.00,-18.00,-37.002102.00,-0.65,6.32,-7.93,-0.01,0.02,0.02,0.00,-18.00,-37.002114.00,-0.65,6.32,-7.93,-0.01,0.02,0.02,0.00,-18.00,-37.002126.00,-0.64,6.31,-7.89,-0.01,0.02,0.02,0.00,-18.00,-37.002137.00,-0.64,6.33,-7.88,-0.01,0.02,0.02,0.00,-18.00,-37.002149.00,-0.64,6.33,-7.88,-0.01,0.02,0.02,0.00,-18.00,-37.002162.00,-0.64,6.33,-7.89,-0.01,0.02,0.02,0.00,-18.00,-37.002174.00,-0.64,6.33,-7.89,-0.01,0.02,0.02,0.00,-18.00,-37.002185.00,-0.65,6.32,-7.87,-0.00,0.02,0.02,0.00,-18.00,-37.002196.00,-0.65,6.31,-7.90,-0.01,0.02,0.02,0.00,-18.00,-37.002209.00,-0.65,6.31,-7.90,-0.01,0.02,0.02,0.00,-18.00,-37.002221.00,-0.65,6.32,-7.91,-0.01,0.02,0.02,0.00,-22.00,-39.002233.00,-0.65,6.32,-7.91,-0.01,0.02,0.02,0.00,-22.00,-39.002245.00,-0.64,6.33,-7.90,-0.01,0.02,0.02,0.00,-22.00,-39.002258.00,-0.66,6.34,-7.87,-0.01,0.02,0.02,0.00,-22.00,-39.002269.00,-0.66,6.34,-7.87,-0.01,0.02,0.02,0.00,-22.00,-39.002281.00,-0.65,6.33,-7.89,-0.01,0.02,0.02,0.00,-22.00,-39.002293.00,-0.65,6.33,-7.89,-0.01,0.02,0.02,0.00,-22.00,-39.002306.00,-0.65,6.31,-7.87,-0.01,0.02,0.02,0.00,-22.00,-39.002317.00,-0.66,6.32,-7.90,-0.01,0.02,0.02,0.00,-22.00,-39.002328.00,-0.66,6.32,-7.90,-0.01,0.02,0.02,0.00,-22.00,-39.002339.00,-0.66,6.33,-7.90,-0.01,0.02,0.02,2.00,-20.00,-37.002352.00,-0.66,6.33,-7.90,-0.01,0.02,0.02,2.00,-20.00,-37.002363.00,-0.67,6.33,-7.93,-0.01,0.02,0.02,2.00,-20.00,-37.002375.00,-0.67,6.33,-7.93,-0.01,0.02,0.02,2.00,-20.00,-37.002387.00,-0.65,6.34,-7.90,-0.01,0.02,0.02,2.00,-20.00,-37.002399.00,-0.64,6.32,-7.91,-0.01,0.02,0.02,2.00,-20.00,-37.002412.00,-0.64,6.32,-7.91,-0.01,0.02,0.02,2.00,-20.00,-37.002423.00,-0.63,6.33,-7.89,-0.01,0.02,0.02,2.00,-20.00,-37.002435.00,-0.63,6.33,-7.89,-0.01,0.02,0.02,2.00,-20.00,-37.002446.00,-0.65,6.31,-7.90,-0.01,0.02,0.02,2.00,-20.00,-37.002459.00,-0.66,6.32,-7.91,-0.01,0.02,0.02,0.00,-15.00,-39.002471.00,-0.66,6.32,-7.91,-0.01,0.02,0.02,0.00,-15.00,-39.002483.00,-0.63,6.34,-7.90,-0.01,0.02,0.02,0.00,-15.00,-39.002495.00,-0.63,6.34,-7.90,-0.01,0.02,0.02,0.00,-15.00,-39.002507.00,-0.63,6.32,-7.92,-0.01,0.02,0.02,0.00,-15.00,-39.002519.00,-0.66,6.31,-7.88,-0.01,0.02,0.02,0.00,-15.00,-39.002530.00,-0.66,6.31,-7.88,-0.01,0.02,0.02,0.00,-15.00,-39.002542.00,-0.64,6.31,-7.88,-0.01,0.02,0.02,0.00,-15.00,-39.002555.00,-0.64,6.31,-7.88,-0.01,0.02,0.02,0.00,-15.00,-39.002567.00,-0.64,6.34,-7.89,-0.01,0.02,0.02,0.00,-15.00,-39.002579.00,-0.66,6.31,-7.91,-0.01,0.02,0.02,2.00,-18.00,-42.002591.00,-0.66,6.31,-7.91,-0.01,0.02,0.02,2.00,-18.00,-42.002604.00,-0.65,6.33,-7.91,-0.01,0.02,0.02,2.00,-18.00,-42.002615.00,-0.65,6.33,-7.91,-0.01,0.02,0.02,2.00,-18.00,-42.002627.00,-0.65,6.32,-7.91,-0.01,0.02,0.02,2.00,-18.00,-42.002638.00,-0.65,6.33,-7.88,-0.00,0.02,0.02,2.00,-18.00,-42.002650.00,-0.65,6.33,-7.88,-0.00,0.02,0.02,2.00,-18.00,-42.002663.00,-0.64,6.33,-7.88,-0.01,0.02,0.02,2.00,-18.00,-42.002675.00,-0.64,6.33,-7.88,-0.01,0.02,0.02,2.00,-18.00,-42.002687.00,-0.64,6.32,-7.92,-0.01,0.02,0.02,2.00,-18.00,-42.002698.00,-0.64,6.34,-7.89,-0.01,0.02,0.02,2.00,-18.00,-42.002711.00,-0.64,6.34,-7.89,-0.01,0.02,0.02,2.00,-18.00,-42.002723.00,-0.66,6.33,-7.92,-0.01,0.02,0.02,0.00,-20.00,-39.002735.00,-0.66,6.33,-7.92,-0.01,0.02,0.02,0.00,-20.00,-39.002746.00,-0.66,6.32,-7.91,-0.01,0.02,0.02,0.00,-20.00,-39.002759.00,-0.66,6.33,-7.93,-0.01,0.02,0.02,0.00,-20.00,-39.002770.00,-0.66,6.33,-7.93,-0.01,0.02,0.02,0.00,-20.00,-39.002782.00,-0.64,6.33,-7.89,-0.01,0.02,0.02,0.00,-20.00,-39.002793.00,-0.64,6.33,-7.89,-0.01,0.02,0.02,0.00,-20.00,-39.002797.00,-0.65,6.32,-7.89,-0.01,0.02,0.02,0.00,-20.00,-39.002876.00,-0.65,6.33,-7.91,-0.01,0.02,0.02,0.00,-20.00,-35.002953.00,-0.65,6.33,-7.88,-0.01,0.02,0.02,0.00,-20.00,-35.003032.00,-0.65,6.32,-7.89,-0.01,0.02,0.02,-5.00,-16.00,-37.003120.00,-0.65,6.33,-7.91,-0.01,0.02,0.02,2.00,-18.00,-39.003132.00,-0.65,6.33,-7.91,-0.01,0.02,0.02,2.00,-18.00,-39.003143.00,-0.65,6.32,-7.90,-0.00,0.02,0.02,2.00,-18.00,-39.003155.00,-0.65,6.32,-7.90,-0.00,0.02,0.02,2.00,-18.00,-39.003167.00,-0.65,6.32,-7.90,-0.00,0.02,0.02,2.00,-18.00,-39.003180.00,-0.64,6.32,-7.91,-0.01,0.02,0.02,2.00,-18.00,-39.003192.00,-0.64,6.32,-7.91,-0.01,0.02,0.02,2.00,-18.00,-39.003203.00,-0.65,6.31,-7.90,-0.01,0.02,0.02,2.00,-18.00,-39.003215.00,-0.65,6.31,-7.90,-0.01,0.02,0.02,2.00,-18.00,-39.003228.00,-0.64,6.33,-7.92,-0.01,0.02,0.02,0.00,-18.00,-39.003240.00,-0.63,6.32,-7.92,-0.01,0.02,0.02,0.00,-18.00,-39.003251.00,-0.63,6.32,-7.92,-0.01,0.02,0.02,0.00,-18.00,-39.003263.00,-0.64,6.31,-7.90,-0.01,0.02,0.02,0.00,-18.00,-39.003275.00,-0.64,6.31,-7.90,-0.01,0.02,0.02,0.00,-18.00,-39.003287.00,-0.64,6.31,-7.91,-0.01,0.02,0.02,0.00,-18.00,-39.003299.00,-0.64,6.34,-7.91,-0.01,0.02,0.02,0.00,-18.00,-39.003311.00,-0.64,6.34,-7.91,-0.01,0.02,0.02,0.00,-18.00,-39.003324.00,-0.63,6.32,-7.89,-0.01,0.02,0.02,0.00,-18.00,-39.003335.00,-0.63,6.32,-7.89,-0.01,0.02,0.02,0.00,-18.00,-39.003346.00,-0.64,6.32,-7.91,-0.01,0.02,0.02,0.00,-20.00,-37.003358.00,-0.63,6.32,-7.91,-0.01,0.02,0.02,0.00,-20.00,-37.003371.00,-0.63,6.32,-7.91,-0.01,0.02,0.02,0.00,-20.00,-37.003383.00,-0.64,6.33,-7.91,-0.01,0.02,0.02,0.00,-20.00,-37.003394.00,-0.64,6.33,-7.91,-0.01,0.02,0.02,0.00,-20.00,-37.003405.00,-0.65,6.33,-7.88,-0.01,0.02,0.02,0.00,-20.00,-37.003418.00,-0.64,6.33,-7.90,-0.01,0.02,0.02,0.00,-20.00,-37.003429.00,-0.64,6.33,-7.90,-0.01,0.02,0.02,0.00,-20.00,-37.003441.00,-0.64,6.32,-7.90,-0.01,0.02,0.02,0.00,-20.00,-37.003453.00,-0.64,6.32,-7.90,-0.01,0.02,0.02,0.00,-20.00,-37.003464.00,-0.62,6.31,-7.90,-0.01,0.02,0.02,-3.00,-16.00,-39.003477.00,-0.62,6.31,-7.90,-0.01,0.02,0.02,-3.00,-16.00,-39.003489.00,-0.62,6.33,-7.91,-0.01,0.02,0.02,-3.00,-16.00,-39.003501.00,-0.64,6.33,-7.90,-0.01,0.02,0.02,-3.00,-16.00,-39.003513.00,-0.64,6.33,-7.90,-0.01,0.02,0.02,-3.00,-16.00,-39.003526.00,-0.63,6.33,-7.88,-0.01,0.02,0.02,-3.00,-16.00,-39.003538.00,-0.64,6.33,-7.89,-0.01,0.02,0.02,-3.00,-16.00,-39.003550.00,-0.64,6.33,-7.89,-0.01,0.02,0.02,-3.00,-16.00,-39.003562.00,-0.62,6.32,-7.91,-0.01,0.02,0.02,-3.00,-16.00,-39.003575.00,-0.62,6.32,-7.91,-0.01,0.02,0.02,-3.00,-16.00,-39.003586.00,-0.64,6.32,-7.90,-0.01,0.02,0.02,-3.00,-16.00,-39.003598.00,-0.64,6.31,-7.90,-0.01,0.02,0.02,-3.00,-16.00,-39.003608.00,-0.64,6.31,-7.90,-0.01,0.02,0.02,0.00,-18.00,-39.003622.00,-0.64,6.33,-7.91,-0.01,0.02,0.02,0.00,-18.00,-39.003633.00,-0.64,6.33,-7.91,-0.01,0.02,0.02,0.00,-18.00,-39.003645.00,-0.63,6.32,-7.87,-0.01,0.02,0.02,0.00,-18.00,-39.003656.00,-0.63,6.32,-7.87,-0.01,0.02,0.02,0.00,-18.00,-39.003669.00,-0.63,6.32,-7.92,-0.01,0.02,0.02,0.00,-18.00,-39.003680.00,-0.62,6.32,-7.89,-0.01,0.02,0.02,0.00,-18.00,-39.003692.00,-0.62,6.32,-7.89,-0.01,0.02,0.02,0.00,-18.00,-39.003703.00,-0.64,6.33,-7.90,-0.01,0.02,0.02,0.00,-18.00,-39.003716.00,-0.64,6.33,-7.90,-0.01,0.02,0.02,0.00,-18.00,-39.003727.00,-0.65,6.32,-7.93,-0.01,0.02,0.02,0.00,-18.00,-39.003739.00,-0.64,6.34,-7.90,-0.01,0.02,0.02,0.00,-18.00,-39.003750.00,-0.64,6.34,-7.90,-0.01,0.02,0.02,0.00,-18.00,-39.003762.00,-0.64,6.31,-7.91,-0.01,0.02,0.02,0.00,-18.00,-39.003775.00,-0.64,6.31,-7.91,-0.01,0.02,0.02,0.00,-18.00,-39.003786.00,-0.64,6.33,-7.90,-0.01,0.02,0.02,0.00,-18.00,-39.003798.00,-0.64,6.33,-7.90,-0.01,0.02,0.02,0.00,-18.00,-39.003810.00,-0.65,6.32,-7.92,-0.01,0.02,0.02,0.00,-18.00,-39.003814.00,-0.65,6.32,-7.92,-0.01,0.02,0.02,0.00,-18.00,-39.003890.00,-0.65,6.31,-7.91,-0.01,0.02,0.02,0.00,-20.00,-42.003969.00,-0.65,6.31,-7.89,-0.01,0.02,0.02,0.00,-18.00,-42.004046.00,-0.63,6.31,-7.90,-0.01,0.02,0.02,0.00,-18.00,-42.004137.00,-0.62,6.31,-7.91,-0.01,0.02,0.02,0.00,-16.00,-35.004149.00,-0.64,6.33,-7.92,-0.01,0.02,0.02,0.00,-16.00,-35.004161.00,-0.64,6.33,-7.92,-0.01,0.02,0.02,0.00,-16.00,-35.004172.00,-0.64,6.33,-7.92,-0.01,0.02,0.02,0.00,-16.00,-35.004185.00,-0.64,6.32,-7.91,-0.01,0.02,0.02,0.00,-16.00,-35.004197.00,-0.64,6.32,-7.91,-0.01,0.02,0.02,0.00,-16.00,-35.004208.00,-0.63,6.33,-7.89,-0.01,0.02,0.02,0.00,-16.00,-35.004220.00,-0.63,6.32,-7.89,-0.01,0.02,0.02,2.00,-20.00,-37.004233.00,-0.63,6.32,-7.89,-0.01,0.02,0.02,2.00,-20.00,-37.004245.00,-0.62,6.32,-7.90,-0.01,0.02,0.02,2.00,-20.00,-37.004257.00,-0.62,6.32,-7.90,-0.01,0.02,0.02,2.00,-20.00,-37.004268.00,-0.64,6.32,-7.89,-0.01,0.02,0.02,2.00,-20.00,-37.004279.00,-0.63,6.32,-7.90,-0.01,0.02,0.02,2.00,-20.00,-37.004292.00,-0.63,6.32,-7.90,-0.01,0.02,0.02,2.00,-20.00,-37.004304.00,-0.64,6.31,-7.89,-0.01,0.02,0.02,2.00,-20.00,-37.004316.00,-0.64,6.31,-7.89,-0.01,0.02,0.02,2.00,-20.00,-37.004327.00,-0.65,6.32,-7.90,-0.01,0.02,0.02,2.00,-20.00,-37.004340.00,-0.63,6.31,-7.92,-0.01,0.02,0.02,2.00,-20.00,-37.004351.00,-0.63,6.31,-7.92,-0.01,0.02,0.02,2.00,-20.00,-37.004363.00,-0.62,6.32,-7.94,-0.01,0.02,0.02,2.00,-20.00,-37.004375.00,-0.62,6.32,-7.94,-0.01,0.02,0.02,2.00,-20.00,-37.004387.00,-0.64,6.31,-7.91,-0.01,0.02,0.02,2.00,-20.00,-37.004399.00,-0.65,6.32,-7.91,-0.01,0.02,0.02,2.00,-20.00,-37.004411.00,-0.65,6.32,-7.91,-0.01,0.02,0.02,2.00,-20.00,-37.004423.00,-0.63,6.32,-7.89,-0.01,0.02,0.02,2.00,-20.00,-37.004436.00,-0.63,6.32,-7.89,-0.01,0.02,0.02,2.00,-20.00,-37.004447.00,-0.63,6.31,-7.91,-0.01,0.02,0.02,2.00,-20.00,-37.004458.00,-0.63,6.31,-7.91,-0.01,0.02,0.02,2.00,-20.00,-37.004469.00,-0.63,6.31,-7.89,-0.01,0.02,0.02,2.00,-20.00,-37.004482.00,-0.63,6.31,-7.91,-0.01,0.02,0.02,0.00,-16.00,-39.004494.00,-0.63,6.31,-7.91,-0.01,0.02,0.02,0.00,-16.00,-39.004505.00,-0.63,6.31,-7.90,-0.01,0.02,0.02,0.00,-16.00,-39.004517.00,-0.63,6.31,-7.90,-0.01,0.02,0.02,0.00,-16.00,-39.004529.00,-0.64,6.31,-7.91,-0.01,0.02,0.02,0.00,-16.00,-39.004542.00,-0.64,6.32,-7.90,-0.01,0.02,0.02,0.00,-16.00,-39.004554.00,-0.64,6.32,-7.90,-0.01,0.02,0.02,0.00,-16.00,-39.004566.00,-0.65,6.32,-7.90,-0.01,0.02,0.02,0.00,-16.00,-39.004577.00,-0.65,6.32,-7.90,-0.01,0.02,0.02,0.00,-16.00,-39.004590.00,-0.63,6.33,-7.91,-0.01,0.02,0.02,0.00,-16.00,-39.004601.00,-0.64,6.33,-7.92,-0.01,0.02,0.02,0.00,-18.00,-37.004613.00,-0.64,6.33,-7.92,-0.01,0.02,0.02,0.00,-18.00,-37.004625.00,-0.64,6.33,-7.91,-0.01,0.02,0.02,0.00,-18.00,-37.004638.00,-0.64,6.33,-7.91,-0.01,0.02,0.02,0.00,-18.00,-37.004650.00,-0.65,6.32,-7.88,-0.01,0.02,0.02,0.00,-18.00,-37.004662.00,-0.63,6.31,-7.87,-0.01,0.02,0.02,0.00,-18.00,-37.004673.00,-0.63,6.31,-7.87,-0.01,0.02,0.02,0.00,-18.00,-37.004686.00,-0.64,6.32,-7.88,-0.01,0.02,0.02,0.00,-18.00,-37.004697.00,-0.64,6.32,-7.88,-0.01,0.02,0.02,0.00,-18.00,-37.004709.00,-0.64,6.36,-7.86,-0.00,0.02,0.02,0.00,-18.00,-37.004721.00,-0.18,6.17,-8.03,0.02,-0.01,0.08,0.00,-22.00,-37.004734.00,-0.18,6.17,-8.03,0.02,-0.01,0.08,0.00,-22.00,-37.004746.00,-0.66,6.02,-8.17,0.00,-0.24,0.33,0.00,-22.00,-37.004757.00,-0.66,6.02,-8.17,0.00,-0.24,0.33,0.00,-22.00,-37.004769.00,-0.69,6.31,-7.92,0.01,-0.24,0.35,0.00,-22.00,-37.004780.00,-1.00,6.66,-7.55,0.00,-0.19,0.26,0.00,-22.00,-37.004793.00,-1.00,6.66,-7.55,0.00,-0.19,0.26,0.00,-22.00,-37.004805.00,-0.68,6.34,-7.86,0.01,-0.02,0.08,0.00,-22.00,-37.004816.00,-0.68,6.34,-7.86,0.01,-0.02,0.08,0.00,-22.00,-37.004828.00,-0.63,6.29,-7.92,0.00,0.02,0.03,0.00,-22.00,-37.004841.00,-0.90,6.34,-7.88,-0.00,-0.02,0.07,2.00,-16.00,-39.004852.00,-0.90,6.34,-7.88,-0.00,-0.02,0.07,2.00,-16.00,-39.004864.00,-0.93,6.37,-7.80,-0.01,-0.12,0.19,2.00,-16.00,-39.004876.00,-0.93,6.37,-7.80,-0.01,-0.12,0.19,2.00,-16.00,-39.004889.00,-0.91,6.57,-7.73,0.01,-0.22,0.31,2.00,-16.00,-39.004901.00,-0.35,6.35,-7.85,0.05,-0.38,0.50,2.00,-16.00,-39.004913.00,-0.35,6.35,-7.85,0.05,-0.38,0.50,2.00,-16.00,-39.004924.00,-0.05,6.17,-8.04,0.04,-0.38,0.51,2.00,-16.00,-39.004937.00,-0.05,6.17,-8.04,0.04,-0.38,0.51,2.00,-16.00,-39.004948.00,-1.04,7.17,-7.08,0.02,-0.03,0.10,2.00,-16.00,-39.004960.00,-1.48,8.06,-6.22,0.01,0.28,-0.28,2.00,-16.00,-39.004971.00,-1.48,8.06,-6.22,0.01,0.28,-0.28,2.00,-16.00,-39.004984.00,-1.47,8.79,-7.75,0.14,0.77,-0.76,0.00,-18.00,-32.004996.00,-1.47,8.79,-7.75,0.14,0.77,-0.76,0.00,-18.00,-32.005007.00,-0.67,5.21,-10.32,1.66,1.19,-1.23,0.00,-18.00,-32.005019.00,-0.67,5.21,-10.32,1.66,1.19,-1.23,0.00,-18.00,-32.005032.00,1.58,0.18,-9.32,2.43,0.86,-0.88,0.00,-18.00,-32.005044.00,-0.54,5.70,-12.46,1.41,0.28,0.61,0.00,-18.00,-32.005056.00,-0.54,5.70,-12.46,1.41,0.28,0.61,0.00,-18.00,-32.005068.00,-3.69,8.26,-11.04,3.33,0.15,0.93,0.00,-18.00,-32.005079.00,-3.69,8.26,-11.04,3.33,0.15,0.93,0.00,-18.00,-32.005092.00,0.11,7.34,-13.08,6.18,0.48,0.47,0.00,-18.00,-32.005104.00,1.39,4.50,-12.41,6.52,-0.61,0.08,6.00,5.00,-20.005116.00,1.39,4.50,-12.41,6.52,-0.61,0.08,6.00,5.00,-20.005128.00,-1.93,4.13,-10.91,5.72,-1.58,0.26,6.00,5.00,-20.005141.00,-1.68,2.49,-10.92,4.56,-1.10,-0.31,6.00,5.00,-20.005152.00,-1.68,2.49,-10.92,4.56,-1.10,-0.31,6.00,5.00,-20.005164.00,-0.65,-1.48,-11.35,3.19,-0.65,-0.88,6.00,5.00,-20.005176.00,-0.65,-1.48,-11.35,3.19,-0.65,-0.88,6.00,5.00,-20.005187.00,-3.89,1.35,-11.70,2.23,-0.74,-0.62,6.00,5.00,-20.005199.00,-3.89,1.35,-11.70,2.23,-0.74,-0.62,6.00,5.00,-20.005210.00,-2.72,-0.70,-14.42,1.32,-0.73,-1.16,6.00,5.00,-20.005221.00,4.72,-7.19,-12.06,2.35,-1.15,-0.46,-5.00,29.00,-6.005234.00,4.72,-7.19,-12.06,2.35,-1.15,-0.46,-5.00,29.00,-6.005246.00,4.20,-8.55,-5.75,1.49,-2.38,2.23,-5.00,29.00,-6.005257.00,4.20,-8.55,-5.75,1.49,-2.38,2.23,-5.00,29.00,-6.005269.00,-3.87,10.69,-4.33,-3.29,-2.64,3.67,-5.00,29.00,-6.005282.00,-11.45,12.00,-11.99,-1.63,-1.01,0.15,-5.00,29.00,-6.005294.00,-11.45,12.00,-11.99,-1.63,-1.01,0.15,-5.00,29.00,-6.005305.00,-3.56,-0.68,-13.45,4.59,0.33,-2.61,-5.00,29.00,-6.005317.00,-3.56,-0.68,-13.45,4.59,0.33,-2.61,-5.00,29.00,-6.005328.00,-0.41,-1.60,-7.37,3.81,-0.87,-2.61,-5.00,29.00,-6.005341.00,-1.68,-1.65,-3.16,2.12,-1.22,-2.52,-23.00,38.00,-6.005353.00,-1.68,-1.65,-3.16,2.12,-1.22,-2.52,-23.00,38.00,-6.005365.00,-2.45,-5.32,-7.06,1.68,-0.28,-2.33,-23.00,38.00,-6.005377.00,-2.45,-5.32,-7.06,1.68,-0.28,-2.33,-23.00,38.00,-6.005390.00,-2.47,-3.46,-11.79,0.92,-0.19,-1.72,-23.00,38.00,-6.005402.00,-1.30,0.42,-9.21,-0.99,-1.41,-2.17,-23.00,38.00,-6.005413.00,-1.30,0.42,-9.21,-0.99,-1.41,-2.17,-23.00,38.00,-6.005425.00,-1.06,-0.14,-0.11,-4.86,-1.98,-3.59,-23.00,38.00,-6.005438.00,-1.06,-0.14,-0.11,-4.86,-1.98,-3.59,-23.00,38.00,-6.005450.00,0.82,0.45,3.40,-13.13,-0.40,-4.51,-23.00,38.00,-6.005461.00,-6.91,8.22,-23.73,-17.30,1.56,-3.86,-23.00,38.00,-6.005473.00,-6.91,8.22,-23.73,-17.30,1.56,-3.86,-23.00,38.00,-6.005486.00,-0.94,3.95,-10.06,-1.00,1.85,-2.93,-35.00,-9.00,-16.005497.00,-0.94,3.95,-10.06,-1.00,1.85,-2.93,-35.00,-9.00,-16.005509.00,4.16,4.12,-7.34,0.79,1.47,-3.02,-35.00,-9.00,-16.005521.00,-1.18,6.95,-8.20,-4.08,0.90,-4.02,-35.00,-9.00,-16.005534.00,-1.18,6.95,-8.20,-4.08,0.90,-4.02,-35.00,-9.00,-16.005546.00,-1.51,10.44,-7.71,-7.34,0.85,-5.32,-35.00,-9.00,-16.005558.00,-1.51,10.44,-7.71,-7.34,0.85,-5.32,-35.00,-9.00,-16.005570.00,-0.27,8.16,-12.04,-4.77,2.02,-6.67,-35.00,-9.00,-16.005583.00,2.67,0.28,-12.06,-0.65,1.86,-7.03,-35.00,-9.00,-16.005595.00,2.67,0.28,-12.06,-0.65,1.86,-7.03,-35.00,-9.00,-16.005607.00,-0.45,0.11,-10.42,-1.53,0.44,-6.03,-57.00,-16.00,-32.005618.00,-0.45,0.11,-10.42,-1.53,0.44,-6.03,-57.00,-16.00,-32.005622.00,-0.68,-2.37,-8.55,1.00,0.78,-4.32,-57.00,-16.00,-32.005699.00,-3.98,3.52,-9.64,3.25,0.18,-0.97,-57.00,-16.00,-32.005777.00,-1.59,0.72,-11.23,-2.07,0.34,-1.61,-62.00,7.00,-18.005853.00,-4.38,-1.36,-9.31,2.70,-0.99,-1.34,-62.00,7.00,-18.005943.00,-3.99,-1.55,-2.26,12.65,-2.90,-2.60,-62.00,7.00,-18.005954.00,-3.99,-1.55,-2.26,12.65,-2.90,-2.60,-62.00,7.00,-18.005966.00,-2.96,-10.06,1.28,13.58,-2.54,-2.41,-62.00,7.00,-18.005978.00,-2.96,-10.06,1.28,13.58,-2.54,-2.41,-62.00,7.00,-18.005991.00,-1.04,-11.27,3.27,14.11,-1.91,-0.80,-75.00,75.00,-72.006003.00,-3.06,-6.08,1.01,14.04,-1.68,0.77,-75.00,75.00,-72.006015.00,-3.06,-6.08,1.01,14.04,-1.68,0.77,-75.00,75.00,-72.006027.00,-3.34,-4.74,7.92,14.69,-1.83,1.23,-75.00,75.00,-72.006040.00,-3.34,-4.74,7.92,14.69,-1.83,1.23,-75.00,75.00,-72.006051.00,-6.37,-7.48,17.72,13.08,-1.30,2.13,-75.00,75.00,-72.006063.00,-5.56,-4.41,12.60,5.30,-0.16,2.22,-75.00,75.00,-72.006074.00,-5.56,-4.41,12.60,5.30,-0.16,2.22,-75.00,75.00,-72.006088.00,-6.96,-3.27,9.50,1.11,0.48,1.84,-75.00,75.00,-72.006100.00,-6.96,-3.27,9.50,1.11,0.48,1.84,-75.00,75.00,-72.006111.00,-6.07,-2.97,10.70,-1.93,0.38,1.07,-85.00,56.00,-100.006123.00,-5.66,-3.53,12.01,-6.85,0.31,0.12,-85.00,56.00,-100.006136.00,-5.66,-3.53,12.01,-6.85,0.31,0.12,-85.00,56.00,-100.006148.00,-6.37,-5.31,7.53,-10.24,0.93,-0.38,-85.00,56.00,-100.006160.00,-6.37,-5.31,7.53,-10.24,0.93,-0.38,-85.00,56.00,-100.006172.00,-3.10,-4.49,-0.05,-10.18,1.28,-0.13,-85.00,56.00,-100.006185.00,-0.72,-3.26,-5.82,-5.62,0.97,0.20,-85.00,56.00,-100.006197.00,-0.72,-3.26,-5.82,-5.62,0.97,0.20,-85.00,56.00,-100.006208.00,-4.09,-7.72,-1.38,0.23,0.32,0.19,-85.00,56.00,-100.006220.00,-4.09,-7.72,-1.38,0.23,0.32,0.19,-85.00,56.00,-100.006233.00,-3.47,-9.67,4.98,1.92,-0.01,0.63,-87.00,68.00,-71.006245.00,-6.85,-8.26,4.27,1.40,0.47,1.30,-87.00,68.00,-71.006257.00,-6.85,-8.26,4.27,1.40,0.47,1.30,-87.00,68.00,-71.006269.00,-6.28,-8.85,6.65,0.13,0.94,1.64,-87.00,68.00,-71.006282.00,-5.39,-6.12,1.93,-2.12,1.19,1.90,-87.00,68.00,-71.006294.00,-5.39,-6.12,1.93,-2.12,1.19,1.90,-87.00,68.00,-71.006305.00,-6.22,-5.92,0.40,-1.80,0.90,1.86,-87.00,68.00,-71.006317.00,-6.22,-5.92,0.40,-1.80,0.90,1.86,-87.00,68.00,-71.006330.00,-7.83,-7.09,3.75,-1.91,0.39,1.65,-87.00,68.00,-71.006342.00,-7.26,-6.68,3.74,-4.54,0.13,1.51,-87.00,68.00,-71.006353.00,-7.26,-6.68,3.74,-4.54,0.13,1.51,-87.00,68.00,-71.006365.00,-7.44,-5.64,2.56,-6.97,0.18,1.50,-96.00,56.00,-61.006378.00,-7.44,-5.64,2.56,-6.97,0.18,1.50,-96.00,56.00,-61.006389.00,-8.05,-4.71,-0.23,-7.23,0.47,1.61,-96.00,56.00,-61.006401.00,-8.05,-4.71,-0.23,-7.23,0.47,1.61,-96.00,56.00,-61.006413.00,-8.24,-4.12,-2.19,-5.32,0.62,1.77,-96.00,56.00,-61.006425.00,-9.84,-6.89,3.43,-4.38,0.38,1.44,-96.00,56.00,-61.006437.00,-9.84,-6.89,3.43,-4.38,0.38,1.44,-96.00,56.00,-61.006449.00,-4.62,-7.15,7.36,-11.48,0.21,1.00,-96.00,56.00,-61.006461.00,-4.62,-7.15,7.36,-11.48,0.21,1.00,-96.00,56.00,-61.006473.00,-9.80,2.26,-13.89,-17.47,-0.09,1.65,-96.00,56.00,-61.006487.00,-8.10,3.50,-10.45,-6.07,0.19,2.42,-100.00,28.00,-34.006499.00,-8.10,3.50,-10.45,-6.07,0.19,2.42,-100.00,28.00,-34.006511.00,-9.89,4.96,-5.60,-0.54,-0.51,1.15,-100.00,28.00,-34.006525.00,-10.93,1.93,-3.70,0.54,-0.86,-0.78,-100.00,28.00,-34.006537.00,-10.93,1.93,-3.70,0.54,-0.86,-0.78,-100.00,28.00,-34.006548.00,-8.52,-3.51,-4.91,1.45,-0.34,-1.46,-100.00,28.00,-34.006560.00,-8.52,-3.51,-4.91,1.45,-0.34,-1.46,-100.00,28.00,-34.006573.00,-7.78,-5.08,-3.35,1.82,-0.21,-1.07,-100.00,28.00,-34.006585.00,-8.71,-4.37,-4.29,1.47,-0.08,-0.52,-100.00,28.00,-34.006597.00,-8.71,-4.37,-4.29,1.47,-0.08,-0.52,-100.00,28.00,-34.006608.00,-9.05,-3.17,-4.23,1.54,0.07,-0.31,-100.00,36.00,-40.006621.00,-9.05,-3.17,-4.23,1.54,0.07,-0.31,-100.00,36.00,-40.006633.00,-7.79,-2.87,-4.59,1.95,0.21,-0.44,-100.00,36.00,-40.006644.00,-8.56,-5.57,-2.91,2.54,0.35,-0.51,-100.00,36.00,-40.006656.00,-8.56,-5.57,-2.91,2.54,0.35,-0.51,-100.00,36.00,-40.006669.00,-7.29,-6.91,-4.14,1.06,0.26,-0.09,-100.00,36.00,-40.006680.00,-7.29,-6.91,-4.14,1.06,0.26,-0.09,-100.00,36.00,-40.006692.00,-9.27,-4.44,-3.51,-0.50,0.03,0.59,-100.00,36.00,-40.006703.00,-8.44,-3.64,-5.45,-2.04,-0.06,0.87,-100.00,36.00,-40.006717.00,-8.44,-3.64,-5.45,-2.04,-0.06,0.87,-100.00,36.00,-40.006728.00,-7.28,-3.27,-5.94,-2.48,-0.39,0.91,-100.00,31.00,-40.006740.00,-7.28,-3.27,-5.94,-2.48,-0.39,0.91,-100.00,31.00,-40.006752.00,-7.98,-4.81,-3.28,-2.37,-0.60,0.94,-100.00,31.00,-40.006765.00,-7.75,-4.25,-3.19,-2.73,-0.39,1.23,-100.00,31.00,-40.006777.00,-7.75,-4.25,-3.19,-2.73,-0.39,1.23,-100.00,31.00,-40.006789.00,-8.28,-2.02,-4.49,-3.01,-0.22,1.52,-100.00,31.00,-40.006800.00,-8.28,-2.02,-4.49,-3.01,-0.22,1.52,-100.00,31.00,-40.006813.00,-8.89,2.64,-5.33,-2.30,-0.17,1.44,-100.00,31.00,-40.006824.00,-9.24,1.86,-4.36,-0.54,-0.12,0.42,-100.00,31.00,-40.006836.00,-9.24,1.86,-4.36,-0.54,-0.12,0.42,-100.00,31.00,-40.006848.00,-8.60,-2.51,-4.30,0.14,-0.12,-0.38,-100.00,31.00,-40.006862.00,-9.03,-2.11,-3.96,0.07,-0.11,-0.09,-100.00,22.00,-42.006874.00,-9.03,-2.11,-3.96,0.07,-0.11,-0.09,-100.00,22.00,-42.006885.00,-10.10,-0.83,-4.16,-0.08,-0.02,0.18,-100.00,22.00,-42.006897.00,-10.10,-0.83,-4.16,-0.08,-0.02,0.18,-100.00,22.00,-42.006910.00,-10.03,-0.53,-4.45,-0.11,0.08,0.11,-100.00,22.00,-42.006922.00,-8.92,-1.43,-4.35,-0.15,0.10,-0.06,-100.00,22.00,-42.006934.00,-8.92,-1.43,-4.35,-0.15,0.10,-0.06,-100.00,22.00,-42.006945.00,-8.38,-1.94,-4.86,-0.28,0.06,0.01,-100.00,22.00,-42.006958.00,-8.38,-1.94,-4.86,-0.28,0.06,0.01,-100.00,22.00,-42.006970.00,-9.03,-0.92,-5.11,-0.32,-0.01,0.25,-100.00,22.00,-42.006981.00,-9.03,-0.92,-5.11,-0.32,-0.01,0.25,-100.00,22.00,-42.006993.00,-9.56,-0.68,-4.41,-0.22,-0.07,0.29,-100.00,21.00,-40.007006.00,-8.92,-1.39,-4.50,-0.19,-0.02,0.31,-100.00,21.00,-40.007017.00,-8.92,-1.39,-4.50,-0.19,-0.02,0.31,-100.00,21.00,-40.007029.00,-8.73,-0.46,-4.69,-0.20,-0.06,0.28,-100.00,21.00,-40.007041.00,-8.73,-0.46,-4.69,-0.20,-0.06,0.28,-100.00,21.00,-40.007055.00,-8.64,-2.57,-5.58,-0.30,-0.15,0.04,-100.00,21.00,-40.007066.00,-8.90,-1.18,-3.78,-0.32,-0.18,0.03,-100.00,21.00,-40.007078.00,-8.90,-1.18,-3.78,-0.32,-0.18,0.03,-100.00,21.00,-40.007090.00,-8.43,-2.52,-4.99,-0.14,-0.03,-0.11,-100.00,21.00,-40.007104.00,-8.70,-1.90,-4.36,-0.12,-0.01,0.05,-98.00,19.00,-40.007116.00,-8.70,-1.90,-4.36,-0.12,-0.01,0.05,-98.00,19.00,-40.007127.00,-9.35,-0.77,-4.66,-0.10,0.08,0.24,-98.00,19.00,-40.007139.00,-9.35,-0.77,-4.66,-0.10,0.08,0.24,-98.00,19.00,-40.007152.00,-9.01,-0.40,-4.64,-0.05,0.12,0.22,-98.00,19.00,-40.007164.00,-8.67,-0.35,-5.06,0.04,0.05,0.13,-98.00,19.00,-40.007176.00,-8.67,-0.35,-5.06,0.04,0.05,0.13,-98.00,19.00,-40.007187.00,-9.20,-0.59,-4.77,0.19,-0.06,0.06,-98.00,19.00,-40.007200.00,-9.20,-0.59,-4.77,0.19,-0.06,0.06,-98.00,19.00,-40.007212.00,-9.44,-0.68,-4.46,0.29,-0.03,0.03,-98.00,19.00,-40.007223.00,-8.94,-1.53,-4.41,0.37,0.06,0.04,-96.00,21.00,-44.007234.00,-8.94,-1.53,-4.41,0.37,0.06,0.04,-96.00,21.00,-44.007247.00,-9.32,-1.39,-4.06,0.24,0.04,0.08,-96.00,21.00,-44.007259.00,-9.32,-1.39,-4.06,0.24,0.04,0.08,-96.00,21.00,-44.007271.00,-8.95,-1.36,-4.42,0.08,0.10,0.06,-96.00,21.00,-44.007282.00,-9.05,-0.78,-4.69,0.04,0.13,0.04,-96.00,21.00,-44.007296.00,-9.05,-0.78,-4.69,0.04,0.13,0.04,-96.00,21.00,-44.007307.00,-8.91,-1.00,-4.80,0.07,0.11,0.01,-96.00,21.00,-44.007319.00,-8.91,-1.00,-4.80,0.07,0.11,0.01,-96.00,21.00,-44.007331.00,-8.75,-0.82,-4.96,0.07,0.08,0.03,-96.00,21.00,-44.007335.00,-8.75,-0.82,-4.96,0.07,0.08,0.03,-96.00,21.00,-44.007414.00,-9.06,-1.26,-4.33,-0.00,0.09,0.09,-98.00,21.00,-40.007491.00,-8.93,-0.88,-4.87,0.02,-0.09,-0.05,-100.00,19.00,-40.007570.00,-9.19,-1.48,-4.02,-0.11,0.14,-0.04,-100.00,19.00,-40.007659.00,-8.41,-1.05,-5.41,-0.94,1.48,0.58,-98.00,17.00,-42.007671.00,-6.63,2.01,-10.08,-0.89,1.16,0.42,-98.00,17.00,-42.007683.00,-6.14,1.35,-9.39,-0.39,0.10,-0.10,-98.00,17.00,-42.007695.00,-6.14,1.35,-9.39,-0.39,0.10,-0.10,-98.00,17.00,-42.007707.00,-7.04,0.62,-7.42,0.07,-0.69,-0.30,-98.00,17.00,-42.007719.00,-7.04,0.62,-7.42,0.07,-0.69,-0.30,-98.00,17.00,-42.007730.00,-8.61,-0.28,-5.30,0.23,-0.83,-0.23,-98.00,17.00,-42.007741.00,-8.61,-0.28,-5.30,0.23,-0.83,-0.23,-98.00,17.00,-42.007754.00,-8.99,1.32,-6.43,0.18,-0.44,0.01,-96.00,19.00,-38.007766.00,-8.82,0.58,-5.47,0.35,-0.32,-0.12,-96.00,19.00,-38.007777.00,-8.82,0.58,-5.47,0.35,-0.32,-0.12,-96.00,19.00,-38.007789.00,-7.97,-1.34,-5.02,0.46,-0.25,-0.21,-96.00,19.00,-38.007803.00,-7.97,-1.34,-5.02,0.46,-0.25,-0.21,-96.00,19.00,-38.007814.00,-8.09,-1.20,-4.67,0.36,-0.31,-0.07,-96.00,19.00,-38.007826.00,-8.96,-1.22,-4.74,0.30,-0.39,-0.04,-96.00,19.00,-38.007837.00,-8.96,-1.22,-4.74,0.30,-0.39,-0.04,-96.00,19.00,-38.007851.00,-9.91,-1.13,-3.91,0.30,-0.50,-0.11,-96.00,19.00,-38.007862.00,-9.91,-1.13,-3.91,0.30,-0.50,-0.11,-96.00,19.00,-38.007874.00,-9.47,-2.21,-3.32,0.27,-0.45,-0.20,-96.00,22.00,-38.007886.00,-9.39,-1.70,-3.15,0.11,-0.29,-0.12,-96.00,22.00,-38.007899.00,-9.39,-1.70,-3.15,0.11,-0.29,-0.12,-96.00,22.00,-38.007910.00,-9.60,-1.53,-3.60,-0.05,-0.11,-0.11,-96.00,22.00,-38.007922.00,-9.60,-1.53,-3.60,-0.05,-0.11,-0.11,-96.00,22.00,-38.007934.00,-9.65,-1.19,-4.14,-0.19,0.06,-0.09,-96.00,22.00,-38.007947.00,-9.81,-0.29,-4.59,-0.27,0.18,-0.11,-96.00,22.00,-38.007958.00,-9.81,-0.29,-4.59,-0.27,0.18,-0.11,-96.00,22.00,-38.007970.00,-9.09,-0.67,-5.29,-0.23,0.22,-0.29,-96.00,22.00,-38.007980.00,-9.09,-0.67,-5.29,-0.23,0.22,-0.29,-96.00,22.00,-38.007994.00,-8.44,-1.04,-5.35,-0.13,0.10,-0.44,-98.00,19.00,-42.008006.00,-8.47,-2.37,-4.73,-0.00,-0.00,-0.48,-98.00,19.00,-42.008018.00,-8.47,-2.37,-4.73,-0.00,-0.00,-0.48,-98.00,19.00,-42.008029.00,-9.19,-2.48,-4.01,-0.02,0.06,-0.33,-98.00,19.00,-42.008043.00,-9.19,-2.48,-4.01,-0.02,0.06,-0.33,-98.00,19.00,-42.008054.00,-9.58,-2.33,-3.64,-0.15,0.18,-0.21,-98.00,19.00,-42.008065.00,-8.08,-2.86,-5.07,-0.31,0.28,-0.15,-98.00,19.00,-42.008077.00,-8.08,-2.86,-5.07,-0.31,0.28,-0.15,-98.00,19.00,-42.008090.00,-8.22,-1.41,-5.05,-0.30,0.18,0.07,-98.00,19.00,-42.008102.00,-8.22,-1.41,-5.05,-0.30,0.18,0.07,-98.00,19.00,-42.008114.00,-7.93,-1.38,-4.97,-0.18,0.08,0.22,-96.00,24.00,-40.008126.00,-7.76,-0.62,-4.75,-0.11,0.01,0.44,-96.00,24.00,-40.008139.00,-7.76,-0.62,-4.75,-0.11,0.01,0.44,-96.00,24.00,-40.008151.00,-7.78,-0.03,-4.87,-0.06,-0.04,0.57,-96.00,24.00,-40.008163.00,-8.14,0.37,-5.43,-0.01,-0.08,0.56,-96.00,24.00,-40.008175.00,-8.14,0.37,-5.43,-0.01,-0.08,0.56,-96.00,24.00,-40.008188.00,-9.06,0.12,-5.78,0.07,-0.22,0.41,-96.00,24.00,-40.008200.00,-9.06,0.12,-5.78,0.07,-0.22,0.41,-96.00,24.00,-40.008212.00,-10.27,-0.35,-5.66,0.23,-0.31,0.25,-96.00,24.00,-40.008223.00,-10.27,-0.35,-5.66,0.23,-0.31,0.25,-96.00,24.00,-40.008235.00,-9.84,-0.86,-4.28,0.29,-0.28,0.05,-96.00,24.00,-40.008248.00,-8.67,-1.71,-4.21,0.26,-0.14,-0.06,-96.00,19.00,-42.008260.00,-8.67,-1.71,-4.21,0.26,-0.14,-0.06,-96.00,19.00,-42.008271.00,-8.91,-1.34,-4.44,0.18,-0.11,0.00,-96.00,19.00,-42.008283.00,-8.91,-1.34,-4.44,0.18,-0.11,0.00,-96.00,19.00,-42.008296.00,-9.15,-1.44,-4.23,0.16,-0.12,0.04,-96.00,19.00,-42.008308.00,-9.07,-1.41,-4.10,0.12,-0.08,0.06,-96.00,19.00,-42.008320.00,-9.07,-1.41,-4.10,0.12,-0.08,0.06,-96.00,19.00,-42.008331.00,-9.38,-0.97,-4.38,0.12,-0.03,0.05,-96.00,19.00,-42.008344.00,-9.16,-1.58,-4.10,0.12,0.02,-0.04,-96.00,19.00,-42.008356.00,-9.16,-1.58,-4.10,0.12,0.02,-0.04,-96.00,19.00,-42.008368.00,-8.88,-1.42,-4.47,0.05,0.11,0.01,-98.00,17.00,-42.008380.00,-8.88,-1.42,-4.47,0.05,0.11,0.01,-98.00,17.00,-42.008394.00,-9.31,-1.01,-4.46,-0.01,0.14,0.09,-98.00,17.00,-42.008406.00,-8.95,-1.16,-4.64,-0.01,0.20,0.11,-98.00,17.00,-42.008417.00,-8.95,-1.16,-4.64,-0.01,0.20,0.11,-98.00,17.00,-42.008429.00,-8.64,-0.88,-4.98,0.00,0.21,0.18,-98.00,17.00,-42.008442.00,-8.64,-0.88,-4.98,0.00,0.21,0.18,-98.00,17.00,-42.008454.00,-8.95,-0.72,-4.87,0.06,0.14,0.20,-98.00,17.00,-42.008466.00,-8.75,-1.17,-4.67,0.08,0.07,0.11,-98.00,17.00,-42.008478.00,-8.75,-1.17,-4.67,0.08,0.07,0.11,-98.00,17.00,-42.008491.00,-8.66,-1.27,-4.80,0.07,0.03,0.09,-96.00,19.00,-40.008503.00,-8.66,-1.27,-4.80,0.07,0.03,0.09,-96.00,19.00,-40.008515.00,-8.76,-1.02,-4.97,0.07,0.00,0.13,-96.00,19.00,-40.008526.00,-9.09,-0.73,-4.80,0.06,-0.05,0.12,-96.00,19.00,-40.008539.00,-9.09,-0.73,-4.80,0.06,-0.05,0.12,-96.00,19.00,-40.008550.00,-8.79,-0.93,-4.89,0.09,-0.06,0.11,-96.00,19.00,-40.008562.00,-8.79,-0.93,-4.89,0.09,-0.06,0.11,-96.00,19.00,-40.008573.00,-8.98,-0.63,-4.85,0.12,-0.10,0.14,-96.00,19.00,-40.008586.00,-9.03,-0.78,-4.57,0.15,-0.15,0.08,-96.00,19.00,-40.008598.00,-9.03,-0.78,-4.57,0.15,-0.15,0.08,-96.00,19.00,-40.008609.00,-9.11,-1.25,-4.28,0.15,-0.14,0.02,-100.00,19.00,-42.008621.00,-9.11,-1.25,-4.28,0.15,-0.14,0.02,-100.00,19.00,-42.008635.00,-9.03,-1.41,-4.30,0.10,-0.09,0.05,-100.00,19.00,-42.008645.00,-9.15,-1.13,-4.26,0.06,-0.06,0.10,-100.00,19.00,-42.008657.00,-9.15,-1.13,-4.26,0.06,-0.06,0.10,-100.00,19.00,-42.008669.00,-9.14,-1.38,-4.05,0.04,-0.01,0.12,-100.00,19.00,-42.008682.00,-9.14,-1.38,-4.05,0.04,-0.01,0.12,-100.00,19.00,-42.008693.00,-9.26,-1.50,-3.80,-0.02,0.08,0.16,-100.00,19.00,-42.008705.00,-9.41,-1.04,-3.90,-0.10,0.19,0.20,-100.00,19.00,-42.008717.00,-9.41,-1.04,-3.90,-0.10,0.19,0.20,-100.00,19.00,-42.008731.00,-9.35,-0.73,-4.19,-0.20,0.28,0.14,-100.00,19.00,-42.008743.00,-9.35,-0.73,-4.19,-0.20,0.28,0.14,-100.00,19.00,-42.008754.00,-8.90,-0.58,-4.84,-0.25,0.34,0.08,-100.00,15.00,-42.008765.00,-8.73,-0.36,-5.29,-0.20,0.30,0.05,-100.00,15.00,-42.008779.00,-8.73,-0.36,-5.29,-0.20,0.30,0.05,-100.00,15.00,-42.008791.00,-8.50,-0.33,-5.65,-0.12,0.20,0.03,-100.00,15.00,-42.008803.00,-8.50,-0.33,-5.65,-0.12,0.20,0.03,-100.00,15.00,-42.008814.00,-8.51,-0.34,-5.59,-0.02,0.07,0.02,-100.00,15.00,-42.008827.00,-8.63,-0.35,-5.43,0.05,-0.07,-0.01,-100.00,15.00,-42.008839.00,-8.63,-0.35,-5.43,0.05,-0.07,-0.01,-100.00,15.00,-42.008850.00,-8.64,-0.65,-5.08,0.11,-0.20,-0.06,-100.00,15.00,-42.008862.00,-8.64,-0.65,-5.08,0.11,-0.20,-0.06,-100.00,15.00,-42.008876.00,-8.96,-1.07,-4.53,0.17,-0.26,-0.07,-98.00,15.00,-40.008888.00,-9.25,-1.27,-3.97,0.17,-0.21,-0.03,-98.00,15.00,-40.008900.00,-9.25,-1.27,-3.97,0.17,-0.21,-0.03,-98.00,15.00,-40.008911.00,-9.27,-1.28,-3.95,0.12,-0.09,0.02,-98.00,15.00,-40.008924.00,-9.27,-1.28,-3.95,0.12,-0.09,0.02,-98.00,15.00,-40.008935.00,-9.08,-1.06,-4.39,0.08,0.02,0.07,-98.00,15.00,-40.008947.00,-9.05,-0.80,-4.62,0.06,0.05,0.09,-98.00,15.00,-40.008958.00,-9.05,-0.80,-4.62,0.06,0.05,0.09,-98.00,15.00,-40.008971.00,-8.83,-0.91,-4.77,0.03,0.03,0.05,-98.00,15.00,-40.008983.00,-8.83,-0.91,-4.77,0.03,0.03,0.05,-98.00,15.00,-40.008994.00,-8.85,-0.79,-4.86,0.04,-0.02,0.06,-96.00,19.00,-42.009006.00,-9.00,-0.85,-4.59,0.09,-0.03,0.07,-96.00,19.00,-42.009019.00,-9.00,-0.85,-4.59,0.09,-0.03,0.07,-96.00,19.00,-42.009030.00,-9.07,-0.91,-4.51,0.11,-0.01,0.10,-96.00,19.00,-42.009041.00,-9.07,-0.91,-4.51,0.11,-0.01,0.10,-96.00,19.00,-42.009052.00,-9.02,-1.11,-4.43,0.09,-0.01,0.08,-96.00,19.00,-42.009066.00,-9.12,-0.81,-4.51,0.04,-0.01,0.09,-96.00,19.00,-42.009078.00,-9.12,-0.81,-4.51,0.04,-0.01,0.09,-96.00,19.00,-42.009090.00,-8.96,-0.87,-4.57,0.02,-0.01,0.06,-96.00,19.00,-42.009101.00,-8.96,-0.87,-4.57,0.02,-0.01,0.06,-96.00,19.00,-42.009105.00,-9.10,-0.76,-4.47,0.02,-0.02,0.04,-98.00,17.00,-40.009183.00,-9.22,-0.97,-4.23,-0.03,0.06,0.06,-98.00,17.00,-40.009260.00,-8.72,-0.56,-5.18,0.03,0.03,0.07,-98.00,17.00,-42.009338.00,-9.18,-1.22,-4.02,0.08,-0.12,-0.02,-98.00,17.00,-42.009426.00,-10.78,-0.03,-2.67,0.24,-0.51,-0.13,-100.00,17.00,-42.009438.00,-10.78,-0.03,-2.67,0.24,-0.51,-0.13,-100.00,17.00,-42.009450.00,-9.35,-1.90,-2.93,0.09,-0.27,-0.24,-100.00,17.00,-42.009462.00,-9.35,-1.90,-2.93,0.09,-0.27,-0.24,-100.00,17.00,-42.009475.00,-9.19,-2.00,-3.33,0.00,-0.10,-0.11,-100.00,17.00,-42.009486.00,-9.13,-1.18,-4.31,-0.04,0.01,0.01,-98.00,21.00,-44.009498.00,-9.13,-1.18,-4.31,-0.04,0.01,0.01,-98.00,21.00,-44.009509.00,-9.18,-0.09,-5.31,-0.09,-0.03,0.00,-98.00,21.00,-44.009523.00,-9.18,-0.09,-5.31,-0.09,-0.03,0.00,-98.00,21.00,-44.009534.00,-9.19,-0.29,-4.92,-0.08,-0.21,-0.14,-98.00,21.00,-44.009545.00,-10.00,0.36,-2.18,-0.05,-0.60,-0.16,-98.00,21.00,-44.009557.00,-10.00,0.36,-2.18,-0.05,-0.60,-0.16,-98.00,21.00,-44.009570.00,-9.05,-2.28,-3.35,0.01,-0.38,-0.31,-98.00,21.00,-44.009582.00,-9.05,-2.28,-3.35,0.01,-0.38,-0.31,-98.00,21.00,-44.009593.00,-9.14,-2.33,-2.95,-0.04,-0.20,-0.18,-98.00,21.00,-44.009605.00,-9.14,-2.33,-2.95,-0.04,-0.20,-0.18,-98.00,21.00,-44.009618.00,-9.19,-1.94,-3.18,-0.07,-0.02,-0.01,-98.00,21.00,-44.009629.00,-9.27,-0.98,-4.24,-0.12,0.09,0.11,-98.00,17.00,-46.009641.00,-9.27,-0.98,-4.24,-0.12,0.09,0.11,-98.00,17.00,-46.009653.00,-9.29,-0.43,-4.65,-0.10,0.06,0.08,-98.00,17.00,-46.009666.00,-9.25,-0.99,-4.14,-0.06,-0.04,-0.03,-98.00,17.00,-46.009678.00,-9.25,-0.99,-4.14,-0.06,-0.04,-0.03,-98.00,17.00,-46.009690.00,-9.23,-1.37,-3.82,-0.06,-0.08,-0.06,-98.00,17.00,-46.009701.00,-9.23,-1.37,-3.82,-0.06,-0.08,-0.06,-98.00,17.00,-46.009715.00,-9.25,-1.29,-3.77,-0.08,-0.07,-0.03,-98.00,17.00,-46.009727.00,-9.22,-1.54,-3.56,-0.06,-0.05,-0.00,-98.00,17.00,-46.009739.00,-9.22,-1.54,-3.56,-0.06,-0.05,-0.00,-98.00,17.00,-46.009751.00,-9.25,-1.27,-3.88,-0.08,-0.00,0.05,-100.00,19.00,-46.009764.00,-9.25,-1.27,-3.88,-0.08,-0.00,0.05,-100.00,19.00,-46.009776.00,-9.30,-1.01,-4.27,-0.12,-0.01,0.07,-100.00,19.00,-46.009788.00,-9.32,-0.96,-4.25,-0.20,-0.10,0.02,-100.00,19.00,-46.009800.00,-9.32,-0.96,-4.25,-0.20,-0.10,0.02,-100.00,19.00,-46.009814.00,-9.84,-0.22,-3.69,-0.35,-0.23,-0.09,-100.00,19.00,-46.009826.00,-9.70,-1.80,-2.04,-0.58,-0.42,-0.43,-100.00,19.00,-46.009838.00,-9.70,-1.80,-2.04,-0.58,-0.42,-0.43,-100.00,19.00,-46.009849.00,-9.67,-0.02,-3.58,-0.75,-0.41,-0.65,-100.00,19.00,-46.009863.00,-9.67,-0.02,-3.58,-0.75,-0.41,-0.65,-100.00,19.00,-46.009874.00,-11.60,-0.88,-5.87,-0.79,-0.37,-1.35,-100.00,22.00,-53.009886.00,-11.60,-0.88,-5.87,-0.79,-0.37,-1.35,-100.00,22.00,-53.009897.00,-6.99,-0.15,-1.74,-0.45,-0.21,-1.47,-100.00,22.00,-53.009910.00,-9.51,1.23,-7.20,-0.10,0.22,-0.94,-100.00,22.00,-53.009922.00,-9.51,1.23,-7.20,-0.10,0.22,-0.94,-100.00,22.00,-53.009933.00,-9.12,0.05,-5.62,0.42,0.30,-0.52,-100.00,22.00,-53.009945.00,-9.12,0.05,-5.62,0.42,0.30,-0.52,-100.00,22.00,-53.009958.00,-9.41,-2.37,-3.77,0.87,0.23,-0.56,-100.00,22.00,-53.009970.00,-9.39,-3.10,-3.39,0.54,0.18,-0.42,-100.00,22.00,-53.009981.00,-9.39,-3.10,-3.39,0.54,0.18,-0.42,-100.00,22.00,-53.009993.00,-9.50,-2.59,-2.58,-0.09,0.07,-0.09,-98.00,26.00,-50.0010006.00,-9.50,-2.59,-2.58,-0.09,0.07,-0.09,-98.00,26.00,-50.0010017.00,-10.94,0.23,-2.04,-0.29,-0.04,0.63,-98.00,26.00,-50.0010028.00,-8.97,-5.85,-3.74,-0.50,-0.38,0.88,-98.00,26.00,-50.0010040.00,-8.97,-5.85,-3.74,-0.50,-0.38,0.88,-98.00,26.00,-50.0010053.00,-7.86,0.70,-1.38,-0.56,-0.71,1.75,-98.00,26.00,-50.0010064.00,-7.86,0.70,-1.38,-0.56,-0.71,1.75,-98.00,26.00,-50.0010076.00,-8.14,-1.79,-5.65,-0.26,-0.55,1.29,-98.00,26.00,-50.0010087.00,-10.64,5.41,-3.01,-0.29,-0.63,0.74,-98.00,26.00,-50.0010091.00,-10.64,5.41,-3.01,-0.29,-0.63,0.74,-98.00,26.00,-50.0010169.00,-9.40,-3.17,-0.57,0.04,-0.26,-0.10,-100.00,21.00,-51.0010247.00,-9.51,-1.45,-2.96,0.05,-0.01,0.01,-98.00,21.00,-55.0010325.00,-9.47,-2.19,-2.96,0.06,0.16,0.30,-98.00,21.00,-55.0010414.00,-3.63,-1.63,-5.19,-1.66,3.34,-0.54,-98.00,19.00,-51.0010426.00,-3.63,-1.63,-5.19,-1.66,3.34,-0.54,-98.00,19.00,-51.0010438.00,-4.54,0.54,-12.01,-1.31,1.87,-0.49,-98.00,19.00,-51.0010450.00,-7.00,-1.10,-4.50,-0.49,-0.14,-0.74,-98.00,19.00,-51.0010463.00,-7.00,-1.10,-4.50,-0.49,-0.14,-0.74,-98.00,19.00,-51.0010475.00,-5.65,-4.10,-6.17,-0.32,-0.16,-0.45,-98.00,19.00,-51.0010487.00,-6.25,0.21,-7.31,-0.36,-0.18,0.45,-94.00,22.00,-42.0010499.00,-6.25,0.21,-7.31,-0.36,-0.18,0.45,-94.00,22.00,-42.0010512.00,-8.24,0.88,-6.54,-0.12,-0.36,0.57,-94.00,22.00,-42.0010523.00,-8.24,0.88,-6.54,-0.12,-0.36,0.57,-94.00,22.00,-42.0010535.00,-9.55,0.11,-5.37,-0.02,-0.39,0.43,-94.00,22.00,-42.0010547.00,-9.73,-0.50,-4.72,-0.06,-0.06,0.45,-94.00,22.00,-42.0010560.00,-9.73,-0.50,-4.72,-0.06,-0.06,0.45,-94.00,22.00,-42.0010572.00,-8.68,-0.21,-5.25,-0.14,0.33,0.55,-94.00,22.00,-42.0010583.00,-8.68,-0.21,-5.25,-0.14,0.33,0.55,-94.00,22.00,-42.0010596.00,-8.27,0.54,-6.15,-0.04,0.48,0.57,-94.00,22.00,-42.0010608.00,-8.82,0.41,-6.39,0.14,0.27,0.39,-94.00,22.00,-42.0010619.00,-8.82,0.41,-6.39,0.14,0.27,0.39,-94.00,22.00,-42.0010631.00,-8.89,-0.51,-5.03,0.34,0.08,0.24,-96.00,17.00,-36.0010642.00,-8.89,-0.51,-5.03,0.34,0.08,0.24,-96.00,17.00,-36.0010655.00,-8.48,-0.65,-5.32,0.41,0.16,0.29,-96.00,17.00,-36.0010666.00,-8.48,-0.65,-5.32,0.41,0.16,0.29,-96.00,17.00,-36.0010678.00,-8.65,-0.21,-5.45,0.47,0.17,0.38,-96.00,17.00,-36.0010690.00,-8.58,-0.20,-5.41,0.53,0.12,0.36,-96.00,17.00,-36.0010704.00,-8.58,-0.20,-5.41,0.53,0.12,0.36,-96.00,17.00,-36.0010716.00,-8.56,0.00,-5.94,0.64,0.08,0.37,-96.00,17.00,-36.0010727.00,-8.97,0.03,-5.15,0.79,-0.02,0.37,-96.00,17.00,-36.0010739.00,-8.97,0.03,-5.15,0.79,-0.02,0.37,-96.00,17.00,-36.0010752.00,-8.67,-0.86,-5.31,0.75,-0.07,0.30,-96.00,19.00,-38.0010763.00,-8.67,-0.86,-5.31,0.75,-0.07,0.30,-96.00,19.00,-38.0010775.00,-8.91,-0.50,-4.71,0.52,-0.38,0.19,-96.00,19.00,-38.0010786.00,-8.91,-0.50,-4.71,0.52,-0.38,0.19,-96.00,19.00,-38.0010799.00,-9.43,-1.35,-3.70,0.43,-0.61,0.02,-96.00,19.00,-38.0010810.00,-9.61,-1.37,-3.57,0.31,-0.55,0.07,-96.00,19.00,-38.0010822.00,-9.61,-1.37,-3.57,0.31,-0.55,0.07,-96.00,19.00,-38.0010834.00,-9.39,-0.63,-3.95,0.21,-0.37,0.14,-96.00,19.00,-38.0010847.00,-9.39,-0.63,-3.95,0.21,-0.37,0.14,-96.00,19.00,-38.0010859.00,-9.20,-0.84,-4.26,0.13,-0.31,0.05,-96.00,19.00,-38.0010870.00,-9.48,-0.82,-4.19,0.05,-0.28,-0.01,-98.00,17.00,-40.0010881.00,-9.48,-0.82,-4.19,0.05,-0.28,-0.01,-98.00,17.00,-40.0010895.00,-9.39,-0.20,-4.41,-0.04,-0.17,-0.05,-98.00,17.00,-40.0010907.00,-9.39,-0.20,-4.41,-0.04,-0.17,-0.05,-98.00,17.00,-40.0010918.00,-9.25,-0.73,-4.19,-0.04,-0.12,-0.12,-98.00,17.00,-40.0010932.00,-8.70,-1.62,-5.27,0.00,-0.24,-0.09,-98.00,17.00,-40.0010943.00,-8.70,-1.62,-5.27,0.00,-0.24,-0.09,-98.00,17.00,-40.0010955.00,-9.24,-0.77,-3.87,-0.08,-0.31,-0.06,-98.00,17.00,-40.0010967.00,-9.24,-0.77,-3.87,-0.08,-0.31,-0.06,-98.00,17.00,-40.0010980.00,-9.22,-0.34,-4.52,-0.17,-0.16,-0.10,-98.00,17.00,-40.0010992.00,-9.18,-0.72,-4.34,-0.16,-0.22,-0.16,-98.00,17.00,-40.0011003.00,-9.18,-0.72,-4.34,-0.16,-0.22,-0.16,-98.00,17.00,-40.0011015.00,-9.22,-1.12,-3.67,-0.10,-0.22,-0.18,-96.00,19.00,-44.0011028.00,-9.19,-1.26,-3.70,-0.08,-0.14,-0.14,-96.00,19.00,-44.0011040.00,-9.19,-1.26,-3.70,-0.08,-0.14,-0.14,-96.00,19.00,-44.0011051.00,-9.19,-1.03,-4.07,-0.12,-0.07,-0.07,-96.00,19.00,-44.0011062.00,-9.19,-1.03,-4.07,-0.12,-0.07,-0.07,-96.00,19.00,-44.0011076.00,-9.24,-0.82,-4.13,-0.10,-0.07,-0.04,-96.00,19.00,-44.0011087.00,-9.24,-0.82,-4.13,-0.10,-0.07,-0.04,-96.00,19.00,-44.0011099.00,-9.22,-1.00,-3.90,-0.07,-0.08,-0.05,-96.00,19.00,-44.0011111.00,-9.24,-1.07,-3.60,-0.06,-0.05,-0.03,-96.00,19.00,-44.0011124.00,-9.24,-1.07,-3.60,-0.06,-0.05,-0.03,-96.00,19.00,-44.0011135.00,-9.23,-1.12,-3.87,-0.05,0.02,0.00,-98.00,17.00,-46.0011146.00,-9.23,-1.12,-3.87,-0.05,0.02,0.00,-98.00,17.00,-46.0011158.00,-9.21,-0.95,-4.36,-0.08,0.04,0.04,-98.00,17.00,-46.0011171.00,-9.24,-0.66,-4.43,-0.09,-0.01,0.04,-98.00,17.00,-46.0011182.00,-9.24,-0.66,-4.43,-0.09,-0.01,0.04,-98.00,17.00,-46.0011194.00,-9.26,-0.62,-4.20,-0.08,-0.07,-0.00,-98.00,17.00,-46.0011206.00,-9.26,-0.62,-4.20,-0.08,-0.07,-0.00,-98.00,17.00,-46.0011219.00,-9.27,-0.86,-3.78,-0.05,-0.10,-0.04,-98.00,17.00,-46.0011231.00,-9.25,-1.18,-3.52,-0.03,-0.06,-0.05,-98.00,17.00,-46.0011243.00,-9.25,-1.18,-3.52,-0.03,-0.06,-0.05,-98.00,17.00,-46.0011254.00,-9.22,-1.15,-4.03,-0.05,0.00,0.01,-96.00,17.00,-46.0011267.00,-9.22,-1.15,-4.03,-0.05,0.00,0.01,-96.00,17.00,-46.0011279.00,-9.26,-0.78,-4.27,-0.07,-0.00,0.04,-96.00,17.00,-46.0011291.00,-9.31,-0.57,-4.18,-0.09,-0.05,0.02,-96.00,17.00,-46.0011302.00,-9.31,-0.57,-4.18,-0.09,-0.05,0.02,-96.00,17.00,-46.0011316.00,-9.13,-1.09,-3.12,-0.10,-0.08,-0.03,-96.00,17.00,-46.0011327.00,-9.13,-1.09,-3.12,-0.10,-0.08,-0.03,-96.00,17.00,-46.0011339.00,-9.26,-1.08,-3.69,-0.11,-0.07,-0.04,-96.00,17.00,-46.0011351.00,-9.25,-1.20,-3.54,-0.03,-0.02,-0.00,-96.00,17.00,-46.0011364.00,-9.25,-1.20,-3.54,-0.03,-0.02,-0.00,-96.00,17.00,-46.0011375.00,-9.28,-0.78,-4.17,-0.04,0.03,0.04,-100.00,21.00,-48.0011387.00,-9.28,-0.78,-4.17,-0.04,0.03,0.04,-100.00,21.00,-48.0011399.00,-9.33,-0.49,-4.30,-0.03,0.00,0.02,-100.00,21.00,-48.0011412.00,-9.29,-0.73,-3.95,-0.02,-0.05,-0.04,-100.00,21.00,-48.0011423.00,-9.29,-0.73,-3.95,-0.02,-0.05,-0.04,-100.00,21.00,-48.0011435.00,-9.26,-1.19,-3.68,-0.02,-0.06,-0.07,-100.00,21.00,-48.0011448.00,-9.27,-1.22,-3.64,-0.04,-0.02,-0.03,-100.00,21.00,-48.0011460.00,-9.27,-1.22,-3.64,-0.04,-0.02,-0.03,-100.00,21.00,-48.0011472.00,-9.27,-1.02,-3.87,-0.04,0.02,0.02,-100.00,21.00,-48.0011484.00,-9.27,-1.02,-3.87,-0.04,0.02,0.02,-100.00,21.00,-48.0011497.00,-9.30,-0.73,-4.13,-0.03,0.02,0.04,-100.00,21.00,-48.0011508.00,-9.32,-0.70,-4.01,-0.02,-0.01,0.01,-96.00,17.00,-46.0011519.00,-9.32,-0.70,-4.01,-0.02,-0.01,0.01,-96.00,17.00,-46.0011531.00,-9.28,-1.07,-3.74,-0.02,-0.02,-0.02,-96.00,17.00,-46.0011544.00,-9.28,-1.07,-3.74,-0.02,-0.02,-0.02,-96.00,17.00,-46.0011556.00,-9.25,-1.24,-3.75,-0.01,0.00,-0.00,-96.00,17.00,-46.0011568.00,-9.29,-1.03,-3.81,-0.01,0.02,0.05,-96.00,17.00,-46.0011580.00,-9.29,-1.03,-3.81,-0.01,0.02,0.05,-96.00,17.00,-46.0011593.00,-9.30,-0.89,-3.93,-0.01,0.03,0.07,-96.00,17.00,-46.0011605.00,-9.30,-0.89,-3.93,-0.01,0.03,0.07,-96.00,17.00,-46.0011617.00,-9.32,-0.81,-3.95,-0.02,0.03,0.07,-96.00,17.00,-46.0011629.00,-9.29,-0.98,-3.84,0.00,0.03,0.06,-98.00,17.00,-48.0011642.00,-9.29,-0.98,-3.84,0.00,0.03,0.06,-98.00,17.00,-48.0011653.00,-9.29,-0.84,-3.90,-0.01,0.03,0.07,-98.00,17.00,-48.0011665.00,-9.29,-0.84,-3.90,-0.01,0.03,0.07,-98.00,17.00,-48.0011677.00,-9.31,-0.72,-4.02,-0.01,0.02,0.06,-98.00,17.00,-48.0011690.00,-9.29,-0.85,-3.97,-0.01,0.00,0.04,-98.00,17.00,-48.0011701.00,-9.29,-0.85,-3.97,-0.01,0.00,0.04,-98.00,17.00,-48.0011713.00,-9.28,-1.07,-4.07,-0.03,-0.02,0.03,-98.00,17.00,-48.0011725.00,-9.28,-1.07,-4.07,-0.03,-0.02,0.03,-98.00,17.00,-48.0011738.00,-9.53,-0.52,-4.10,-0.06,-0.06,0.01,-98.00,17.00,-48.0011750.00,-9.52,-0.93,-1.94,-0.10,-0.16,-0.35,-100.00,17.00,-48.0011762.00,-9.52,-0.93,-1.94,-0.10,-0.16,-0.35,-100.00,17.00,-48.0011774.00,-8.43,-5.84,-1.80,-0.12,-0.09,-0.76,-100.00,17.00,-48.0011788.00,-9.76,4.81,-4.59,-0.30,-0.02,-0.28,-100.00,17.00,-48.0011800.00,-9.76,4.81,-4.59,-0.30,-0.02,-0.28,-100.00,17.00,-48.0011811.00,-8.52,-3.36,-5.83,-0.04,0.01,-0.62,-100.00,17.00,-48.0011823.00,-8.52,-3.36,-5.83,-0.04,0.01,-0.62,-100.00,17.00,-48.0011827.00,-8.52,-3.36,-5.83,-0.04,0.01,-0.62,-100.00,17.00,-48.0011905.00,-10.53,4.58,-1.59,-0.28,-0.21,-0.35,-96.00,26.00,-50.0011983.00,-9.28,-1.48,-4.15,0.54,0.03,-0.31,-96.00,26.00,-50.0012060.00,-9.09,-2.93,-2.62,-0.10,0.19,0.10,-98.00,29.00,-50.0012150.00,-8.93,-4.13,-4.06,-0.21,-0.02,0.37,-96.00,26.00,-46.0012162.00,-8.93,-4.13,-4.06,-0.21,-0.02,0.37,-96.00,26.00,-46.0012173.00,-10.00,0.09,-3.23,-0.41,-0.17,0.73,-96.00,26.00,-46.0012185.00,-10.00,0.09,-3.23,-0.41,-0.17,0.73,-96.00,26.00,-46.0012198.00,-10.99,1.48,-3.76,-0.60,-0.51,0.62,-96.00,26.00,-46.0012210.00,-9.55,-3.50,-7.22,-0.53,-1.12,0.52,-96.00,26.00,-46.0012222.00,-9.55,-3.50,-7.22,-0.53,-1.12,0.52,-96.00,26.00,-46.0012234.00,-8.94,1.61,1.85,-0.80,-1.69,0.72,-96.00,26.00,-46.0012247.00,-8.94,1.61,1.85,-0.80,-1.69,0.72,-96.00,26.00,-46.0012259.00,-8.72,-8.21,0.40,-0.39,-1.10,0.04,-96.00,22.00,-53.0012270.00,-9.23,-0.61,0.41,-0.90,-0.80,0.74,-96.00,22.00,-53.0012282.00,-9.23,-0.61,0.41,-0.90,-0.80,0.74,-96.00,22.00,-53.0012295.00,-9.18,1.10,-4.23,-0.48,-0.23,0.45,-96.00,22.00,-53.0012307.00,-9.18,1.10,-4.23,-0.48,-0.23,0.45,-96.00,22.00,-53.0012319.00,-9.50,1.03,-6.05,-0.04,-0.06,-0.03,-96.00,22.00,-53.0012330.00,-9.54,-1.53,-2.51,0.13,-0.33,-0.44,-96.00,22.00,-53.0012343.00,-9.54,-1.53,-2.51,0.13,-0.33,-0.44,-96.00,22.00,-53.0012355.00,-9.46,-2.97,-0.79,0.06,-0.31,-0.41,-96.00,22.00,-53.0012367.00,-9.46,-2.97,-0.79,0.06,-0.31,-0.41,-96.00,22.00,-53.0012379.00,-9.46,-2.73,-1.68,-0.05,-0.01,-0.12,-96.00,22.00,-53.0012392.00,-9.56,-1.44,-3.39,-0.09,0.16,0.13,-100.00,22.00,-55.0012404.00,-9.56,-1.44,-3.39,-0.09,0.16,0.13,-100.00,22.00,-55.0012415.00,-9.78,0.10,-4.01,-0.08,0.06,0.15,-100.00,22.00,-55.0012427.00,-9.78,0.10,-4.01,-0.08,0.06,0.15,-100.00,22.00,-55.0012440.00,-9.74,0.05,-3.38,-0.04,-0.13,-0.06,-100.00,22.00,-55.0012451.00,-9.64,-1.11,-2.41,0.00,-0.25,-0.28,-100.00,22.00,-55.0012463.00,-9.64,-1.11,-2.41,0.00,-0.25,-0.28,-100.00,22.00,-55.0012476.00,-9.52,-2.33,-1.74,0.06,-0.21,-0.31,-100.00,22.00,-55.0012488.00,-9.52,-2.33,-1.74,0.06,-0.21,-0.31,-100.00,22.00,-55.0012500.00,-9.44,-2.74,-1.90,0.05,-0.06,-0.14,-100.00,22.00,-55.0012512.00,-9.56,-1.62,-2.89,-0.01,0.05,0.05,-96.00,21.00,-55.0012525.00,-9.56,-1.62,-2.89,-0.01,0.05,0.05,-96.00,21.00,-55.0012537.00,-9.69,-0.73,-3.52,0.03,0.01,0.08,-96.00,21.00,-55.0012549.00,-9.74,-0.52,-2.63,0.09,-0.11,-0.04,-96.00,21.00,-55.0012561.00,-9.74,-0.52,-2.63,0.09,-0.11,-0.04,-96.00,21.00,-55.0012574.00,-9.58,-1.70,-2.02,0.10,-0.11,-0.18,-96.00,21.00,-55.0012585.00,-9.58,-1.70,-2.02,0.10,-0.11,-0.18,-96.00,21.00,-55.0012597.00,-9.49,-2.58,-1.61,0.04,-0.02,-0.15,-96.00,21.00,-55.0012609.00,-9.49,-2.58,-1.61,0.04,-0.02,-0.15,-96.00,21.00,-55.0012622.00,-9.48,-2.67,-1.93,-0.03,0.12,0.02,-96.00,21.00,-55.0012633.00,-9.59,-1.68,-2.70,-0.06,0.22,0.20,-96.00,24.00,-57.0012645.00,-9.59,-1.68,-2.70,-0.06,0.22,0.20,-96.00,24.00,-57.0012657.00,-9.73,-0.86,-3.05,-0.02,0.22,0.24,-96.00,24.00,-57.0012670.00,-9.78,-1.07,-2.70,0.10,0.19,0.17,-96.00,24.00,-57.0012682.00,-9.78,-1.07,-2.70,0.10,0.19,0.17,-96.00,24.00,-57.0012694.00,-10.06,0.15,-1.67,0.41,0.28,0.10,-96.00,24.00,-57.0012705.00,-10.06,0.15,-1.67,0.41,0.28,0.10,-96.00,24.00,-57.0012719.00,-9.64,-3.74,3.91,1.29,0.86,-0.02,-96.00,24.00,-57.0012730.00,-21.72,-6.90,9.35,0.90,2.07,-0.12,-96.00,24.00,-57.0012742.00,-21.72,-6.90,9.35,0.90,2.07,-0.12,-96.00,24.00,-57.0012754.00,-6.60,-2.45,1.01,-1.82,3.71,0.01,-96.00,21.00,-46.0012767.00,-6.60,-2.45,1.01,-1.82,3.71,0.01,-96.00,21.00,-46.0012778.00,-1.72,-0.11,-13.90,-2.38,3.83,-0.16,-96.00,21.00,-46.0012790.00,-3.20,0.92,-11.08,-1.48,1.14,-0.19,-96.00,21.00,-46.0012801.00,-3.20,0.92,-11.08,-1.48,1.14,-0.19,-96.00,21.00,-46.0012805.00,-3.20,0.92,-11.08,-1.48,1.14,-0.19,-96.00,21.00,-46.0012885.00,-10.52,3.13,-9.29,0.02,-0.19,0.69,-96.00,21.00,-46.0012961.00,-10.27,-1.63,-1.83,0.12,-0.29,0.07,-94.00,19.00,-40.0013039.00,-8.50,-0.16,-5.56,-0.01,0.06,0.02,-96.00,17.00,-42.0013128.00,-9.01,-0.55,-4.59,0.07,0.01,0.08,-96.00,17.00,-42.0013140.00,-9.12,-0.16,-4.67,0.14,-0.03,0.07,-98.00,15.00,-40.0013152.00,-9.14,-0.51,-4.33,0.23,-0.07,-0.02,-98.00,15.00,-40.0013163.00,-9.14,-0.51,-4.33,0.23,-0.07,-0.02,-98.00,15.00,-40.0013175.00,-8.90,-0.91,-4.55,0.30,0.00,-0.01,-98.00,15.00,-40.0013187.00,-8.90,-0.91,-4.55,0.30,0.00,-0.01,-98.00,15.00,-40.0013198.00,-8.95,-0.97,-4.61,0.36,0.06,0.09,-98.00,15.00,-40.0013210.00,-8.95,-0.97,-4.61,0.36,0.06,0.09,-98.00,15.00,-40.0013223.00,-9.21,-0.86,-4.41,0.28,-0.09,0.11,-98.00,15.00,-40.0013235.00,-9.50,-0.96,-3.58,0.17,-0.22,0.05,-98.00,15.00,-40.0013247.00,-9.50,-0.96,-3.58,0.17,-0.22,0.05,-98.00,15.00,-40.0013258.00,-9.28,-1.15,-3.78,0.09,-0.16,0.01,-94.00,17.00,-46.0013271.00,-9.07,-1.04,-4.19,0.07,-0.09,0.08,-94.00,17.00,-46.0013283.00,-9.07,-1.04,-4.19,0.07,-0.09,0.08,-94.00,17.00,-46.0013294.00,-9.20,-0.43,-4.34,0.07,-0.09,0.14,-94.00,17.00,-46.0013306.00,-9.20,-0.43,-4.34,0.07,-0.09,0.14,-94.00,17.00,-46.0013319.00,-9.15,-0.63,-4.32,0.07,-0.12,0.05,-94.00,17.00,-46.0013331.00,-9.16,-0.94,-4.13,0.04,-0.13,0.00,-94.00,17.00,-46.0013342.00,-9.16,-0.94,-4.13,0.04,-0.13,0.00,-94.00,17.00,-46.0013354.00,-9.01,-0.72,-4.40,0.04,-0.12,0.03,-94.00,17.00,-46.0013368.00,-9.01,-0.72,-4.40,0.04,-0.12,0.03,-94.00,17.00,-46.0013379.00,-9.74,-0.41,-4.42,0.09,-0.18,0.00,-94.00,17.00,-46.0013391.00,-10.13,-0.51,-3.03,0.08,-0.21,-0.06,-94.00,21.00,-46.0013402.00,-10.13,-0.51,-3.03,0.08,-0.21,-0.06,-94.00,21.00,-46.0013415.00,-9.28,-1.29,-3.74,-0.01,-0.06,-0.12,-94.00,21.00,-46.0013426.00,-9.28,-1.29,-3.74,-0.01,-0.06,-0.12,-94.00,21.00,-46.0013438.00,-9.24,-0.84,-4.07,-0.05,-0.03,-0.06,-94.00,21.00,-46.0013449.00,-9.24,-0.84,-4.07,-0.05,-0.03,-0.06,-94.00,21.00,-46.0013463.00,-9.23,-0.70,-4.31,-0.03,-0.04,-0.03,-94.00,21.00,-46.0013475.00,-9.35,-1.56,-4.45,-0.01,-0.26,0.01,-94.00,21.00,-46.0013486.00,-9.35,-1.56,-4.45,-0.01,-0.26,0.01,-94.00,21.00,-46.0013498.00,-9.26,-0.91,-3.72,-0.05,-0.25,-0.05,-94.00,21.00,-46.0013511.00,-9.35,-0.67,-3.49,-0.04,-0.11,-0.11,-96.00,17.00,-46.0013523.00,-9.35,-0.67,-3.49,-0.04,-0.11,-0.11,-96.00,17.00,-46.0013535.00,-9.30,-0.73,-4.10,-0.07,-0.05,-0.12,-96.00,17.00,-46.0013547.00,-9.30,-0.73,-4.10,-0.07,-0.05,-0.12,-96.00,17.00,-46.0013560.00,-9.28,-0.88,-4.17,-0.10,-0.08,-0.14,-96.00,17.00,-46.0013571.00,-9.29,-0.94,-3.88,-0.11,-0.12,-0.15,-96.00,17.00,-46.0013583.00,-9.29,-0.94,-3.88,-0.11,-0.12,-0.15,-96.00,17.00,-46.0013595.00,-9.27,-1.00,-3.86,-0.07,-0.12,-0.14,-96.00,17.00,-46.0013610.00,-9.27,-1.00,-3.86,-0.07,-0.12,-0.14,-96.00,17.00,-46.0013622.00,-9.29,-1.08,-3.83,-0.03,-0.12,-0.13,-96.00,17.00,-46.0013634.00,-9.29,-1.31,-3.78,-0.01,-0.12,-0.11,-96.00,21.00,-48.0013645.00,-9.29,-1.31,-3.78,-0.01,-0.12,-0.11,-96.00,21.00,-48.0013657.00,-9.28,-1.36,-3.69,-0.05,-0.11,-0.06,-96.00,21.00,-48.0013669.00,-9.28,-1.36,-3.69,-0.05,-0.11,-0.06,-96.00,21.00,-48.0013680.00,-9.30,-1.18,-3.65,-0.13,-0.10,-0.01,-96.00,21.00,-48.0013693.00,-9.34,-1.04,-3.52,-0.13,-0.07,0.02,-96.00,21.00,-48.0013705.00,-9.34,-1.04,-3.52,-0.13,-0.07,0.02,-96.00,21.00,-48.0013717.00,-9.39,-0.69,-3.73,-0.09,-0.03,0.03,-96.00,21.00,-48.0013729.00,-9.39,-0.69,-3.73,-0.09,-0.03,0.03,-96.00,21.00,-48.0013742.00,-9.37,-0.64,-4.01,-0.07,-0.04,-0.01,-96.00,21.00,-48.0013754.00,-9.37,-0.73,-3.89,-0.03,-0.08,-0.07,-96.00,21.00,-48.0013765.00,-9.37,-0.73,-3.89,-0.03,-0.08,-0.07,-96.00,21.00,-48.0013777.00,-9.33,-1.13,-3.52,0.01,-0.10,-0.11,-98.00,21.00,-48.0013790.00,-9.33,-1.13,-3.52,0.01,-0.10,-0.11,-98.00,21.00,-48.0013802.00,-9.30,-1.52,-3.36,-0.00,-0.08,-0.09,-98.00,21.00,-48.0013813.00,-9.32,-1.42,-3.52,-0.04,-0.03,-0.02,-98.00,21.00,-48.0013825.00,-9.32,-1.42,-3.52,-0.04,-0.03,-0.02,-98.00,21.00,-48.0013839.00,-9.39,-0.67,-4.03,-0.06,-0.02,0.03,-98.00,21.00,-48.0013850.00,-9.39,-0.67,-4.03,-0.06,-0.02,0.03,-98.00,21.00,-48.0013861.00,-9.42,-0.51,-4.00,-0.06,-0.08,-0.03,-98.00,21.00,-48.0013873.00,-9.42,-0.87,-3.52,-0.04,-0.13,-0.12,-98.00,21.00,-48.0013886.00,-9.42,-0.87,-3.52,-0.04,-0.13,-0.12,-98.00,21.00,-48.0013898.00,-9.35,-1.39,-3.30,-0.03,-0.12,-0.15,-98.00,24.00,-50.0013909.00,-9.35,-1.39,-3.30,-0.03,-0.12,-0.15,-98.00,24.00,-50.0013921.00,-9.30,-1.82,-3.16,-0.07,-0.08,-0.11,-98.00,24.00,-50.0013934.00,-9.58,-2.68,-2.60,-0.18,-0.13,-0.16,-98.00,24.00,-50.0013946.00,-9.58,-2.68,-2.60,-0.18,-0.13,-0.16,-98.00,24.00,-50.0013957.00,-9.58,-1.15,-2.99,-0.35,-0.18,0.03,-98.00,24.00,-50.0013969.00,-9.58,-1.15,-2.99,-0.35,-0.18,0.03,-98.00,24.00,-50.0013982.00,-10.15,0.32,-3.00,-0.48,-0.33,-0.20,-98.00,24.00,-50.0013994.00,-9.59,2.92,-2.50,-0.44,-0.38,-0.46,-98.00,24.00,-50.0014006.00,-9.59,2.92,-2.50,-0.44,-0.38,-0.46,-98.00,24.00,-50.0014018.00,-6.83,1.35,-1.90,-0.59,-0.33,-1.06,-98.00,21.00,-53.0014031.00,-6.83,1.35,-1.90,-0.59,-0.33,-1.06,-98.00,21.00,-53.0014043.00,-8.86,-5.96,-4.38,-0.54,-0.24,-1.45,-98.00,21.00,-53.0014054.00,-8.85,-1.36,-1.97,-0.57,-0.03,-0.45,-98.00,21.00,-53.0014066.00,-8.85,-1.36,-1.97,-0.57,-0.03,-0.45,-98.00,21.00,-53.0014079.00,-8.78,-1.27,-4.77,-0.34,0.14,-0.43,-98.00,21.00,-53.0014090.00,-8.78,-1.27,-4.77,-0.34,0.14,-0.43,-98.00,21.00,-53.0014102.00,-8.88,-3.63,-5.62,-0.08,0.15,-0.33,-98.00,21.00,-53.0014114.00,-9.60,-0.42,-3.32,-0.16,0.00,-0.00,-98.00,21.00,-53.0014127.00,-9.60,-0.42,-3.32,-0.16,0.00,-0.00,-98.00,21.00,-53.0014139.00,-9.55,-0.46,-2.75,-0.09,0.06,-0.05,-96.00,29.00,-53.0014151.00,-9.23,-2.79,-3.72,-0.02,0.10,-0.04,-96.00,29.00,-53.0014165.00,-9.23,-2.79,-3.72,-0.02,0.10,-0.04,-96.00,29.00,-53.0014177.00,-9.40,-1.22,-3.48,-0.09,0.03,0.11,-96.00,29.00,-53.0014189.00,-9.40,-1.22,-3.48,-0.09,0.03,0.11,-96.00,29.00,-53.0014201.00,-9.36,-1.54,-3.48,-0.05,0.04,0.04,-96.00,29.00,-53.0014215.00,-9.34,-1.67,-3.40,-0.03,0.03,0.00,-96.00,29.00,-53.0014227.00,-9.34,-1.67,-3.40,-0.03,0.03,0.00,-96.00,29.00,-53.0014239.00,-9.29,-1.92,-3.58,-0.03,0.03,-0.00,-96.00,29.00,-53.0014251.00,-9.29,-1.92,-3.58,-0.03,0.03,-0.00,-96.00,29.00,-53.0014264.00,-9.30,-1.98,-3.49,-0.07,0.00,0.02,-96.00,29.00,-53.0014276.00,-9.32,-1.79,-3.33,-0.04,-0.00,0.05,-96.00,29.00,-53.0014288.00,-9.32,-1.79,-3.33,-0.04,-0.00,0.05,-96.00,29.00,-53.0014298.00,-9.30,-1.85,-3.33,-0.02,0.02,0.06,-96.00,29.00,-53.0014312.00,-9.35,-1.57,-3.67,-0.04,0.03,0.07,-96.00,29.00,-53.0014323.00,-9.35,-1.57,-3.67,-0.04,0.03,0.07,-96.00,29.00,-53.0014335.00,-9.37,-1.31,-3.54,-0.01,0.00,0.04,-96.00,29.00,-53.0014346.00,-9.37,-1.31,-3.54,-0.01,0.00,0.04,-96.00,29.00,-53.0014360.00,-9.31,-1.74,-3.20,0.02,0.01,0.01,-96.00,29.00,-53.0014372.00,-9.26,-2.30,-3.19,-0.05,0.05,0.02,-96.00,29.00,-53.0014384.00,-9.26,-2.30,-3.19,-0.05,0.05,0.02,-96.00,29.00,-53.0014395.00,-9.30,-1.77,-3.77,-0.18,0.06,0.09,-100.00,26.00,-51.0014409.00,-9.30,-1.77,-3.77,-0.18,0.06,0.09,-100.00,26.00,-51.0014420.00,-9.40,-1.02,-4.01,-0.17,0.01,0.10,-100.00,26.00,-51.0014431.00,-9.39,-0.95,-3.84,-0.02,-0.07,0.00,-100.00,26.00,-51.0014443.00,-9.39,-0.95,-3.84,-0.02,-0.07,0.00,-100.00,26.00,-51.0014456.00,-9.32,-1.88,-2.94,0.08,-0.11,-0.11,-100.00,26.00,-51.0014467.00,-9.32,-1.88,-2.94,0.08,-0.11,-0.11,-100.00,26.00,-51.0014479.00,-9.25,-2.72,-2.55,-0.06,-0.06,-0.08,-100.00,26.00,-51.0014491.00,-9.25,-2.72,-2.55,-0.06,-0.06,-0.08,-100.00,26.00,-51.0014495.00,-9.13,-3.07,-3.03,-0.25,0.06,0.09,-100.00,26.00,-51.0014572.00,-8.85,-0.93,-2.98,0.06,0.15,-0.05,-100.00,26.00,-50.0014651.00,-9.70,-2.08,-2.98,0.00,0.22,0.08,-96.00,26.00,-48.0014728.00,-10.28,-0.10,-7.10,0.27,-1.17,-0.10,-96.00,26.00,-48.0014818.00,-8.91,0.17,-6.42,-0.60,-0.39,-0.16,-96.00,28.00,-53.0014829.00,-8.91,0.17,-6.42,-0.60,-0.39,-0.16,-96.00,28.00,-53.0014841.00,-9.41,-0.91,-5.05,0.18,-0.17,-0.73,-96.00,28.00,-53.0014853.00,-9.37,-3.67,-0.46,0.48,-0.42,-0.84,-96.00,28.00,-53.0014866.00,-9.37,-3.67,-0.46,0.48,-0.42,-0.84,-96.00,28.00,-53.0014877.00,-9.22,-5.09,0.26,0.23,-0.17,-0.44,-96.00,28.00,-53.0014889.00,-9.22,-5.09,0.26,0.23,-0.17,-0.44,-96.00,28.00,-53.0014901.00,-9.14,-5.02,-0.75,-0.05,0.21,0.18,-100.00,26.00,-63.0014914.00,-9.56,-1.12,-3.67,-0.20,0.44,0.73,-100.00,26.00,-63.0014926.00,-9.56,-1.12,-3.67,-0.20,0.44,0.73,-100.00,26.00,-63.0014938.00,-10.15,2.99,-5.78,-0.10,0.24,0.62,-100.00,26.00,-63.0014949.00,-10.15,2.99,-5.78,-0.10,0.24,0.62,-100.00,26.00,-63.0014962.00,-9.93,0.61,-2.98,0.22,-0.18,-0.06,-100.00,26.00,-63.0014974.00,-9.60,-3.43,-0.32,0.34,-0.22,-0.36,-100.00,26.00,-63.0014985.00,-9.60,-3.43,-0.32,0.34,-0.22,-0.36,-100.00,26.00,-63.0014997.00,-9.50,-4.21,0.22,0.33,0.14,-0.04,-100.00,26.00,-63.0015011.00,-9.50,-4.21,0.22,0.33,0.14,-0.04,-100.00,26.00,-63.0015023.00,-10.45,-2.08,-1.29,0.58,0.74,0.50,-94.00,28.00,-57.0015034.00,-15.95,-1.48,2.62,0.70,1.20,0.35,-94.00,28.00,-57.0015046.00,-15.95,-1.48,2.62,0.70,1.20,0.35,-94.00,28.00,-57.0015059.00,-8.76,-4.42,5.48,-0.44,2.33,-0.28,-94.00,28.00,-57.0015071.00,-8.76,-4.42,5.48,-0.44,2.33,-0.28,-94.00,28.00,-57.0015083.00,-4.82,-5.67,-5.42,-1.53,3.52,0.11,-94.00,28.00,-57.0015096.00,-7.08,-1.72,-6.22,-1.86,2.52,1.11,-94.00,28.00,-57.0015110.00,-7.08,-1.72,-6.22,-1.86,2.52,1.11,-94.00,28.00,-57.0015121.00,-6.37,2.66,-7.43,-1.84,1.85,1.57,-94.00,28.00,-57.0015133.00,-6.03,1.83,-8.68,-1.26,1.49,1.13,-94.00,17.00,-38.0015144.00,-6.03,1.83,-8.68,-1.26,1.49,1.13,-94.00,17.00,-38.0015157.00,-8.61,3.39,-9.02,-0.67,1.00,0.95,-94.00,17.00,-38.0015169.00,-8.61,3.39,-9.02,-0.67,1.00,0.95,-94.00,17.00,-38.0015180.00,-8.47,3.21,-5.76,-0.31,0.55,0.43,-94.00,17.00,-38.0015192.00,-8.47,3.21,-5.76,-0.31,0.55,0.43,-94.00,17.00,-38.0015205.00,-9.04,-0.05,-5.57,-0.11,0.47,-0.11,-94.00,17.00,-38.0015217.00,-8.90,-0.68,-4.97,-0.23,0.43,0.03,-94.00,17.00,-38.0015229.00,-8.90,-0.68,-4.97,-0.23,0.43,0.03,-94.00,17.00,-38.0015240.00,-8.44,0.07,-5.74,-0.42,0.48,0.22,-94.00,17.00,-38.0015253.00,-8.00,1.06,-6.53,-0.38,0.43,0.23,-94.00,17.00,-38.0015265.00,-8.00,1.06,-6.53,-0.38,0.43,0.23,-94.00,17.00,-38.0015276.00,-8.14,1.27,-6.63,-0.17,0.29,0.06,-33.00,15.00,-34.0015287.00,-8.14,1.27,-6.63,-0.17,0.29,0.06,-33.00,15.00,-34.0015301.00,-8.38,0.95,-6.38,0.04,0.15,-0.09,-33.00,15.00,-34.0015313.00,-9.10,0.23,-5.28,0.18,0.07,-0.15,-33.00,15.00,-34.0015325.00,-9.10,0.23,-5.28,0.18,0.07,-0.15,-33.00,15.00,-34.0015336.00,-9.06,-0.40,-4.53,0.19,0.14,-0.12,-33.00,15.00,-34.0015349.00,-9.06,-0.40,-4.53,0.19,0.14,-0.12,-33.00,15.00,-34.0015360.00,-9.20,-0.25,-4.63,0.11,0.33,-0.01,-33.00,15.00,-34.0015372.00,-9.20,-0.25,-4.63,0.11,0.33,-0.01,-33.00,15.00,-34.0015384.00,-8.72,0.34,-5.11,-0.06,0.47,-0.00,-33.00,15.00,-34.0015397.00,-8.49,0.47,-6.17,-0.17,0.51,-0.18,-34.00,14.00,-32.0015409.00,-8.49,0.47,-6.17,-0.17,0.51,-0.18,-34.00,14.00,-32.0015421.00,-8.00,0.77,-7.07,-0.18,0.45,-0.29,-34.00,14.00,-32.0015433.00,-8.00,0.77,-7.07,-0.18,0.45,-0.29,-34.00,14.00,-32.0015446.00,-8.21,0.38,-6.30,-0.11,0.28,-0.42,-34.00,14.00,-32.0015458.00,-7.70,0.06,-6.83,-0.04,0.26,-0.42,-34.00,14.00,-32.0015469.00,-7.70,0.06,-6.83,-0.04,0.26,-0.42,-34.00,14.00,-32.0015481.00,-7.45,-0.60,-6.53,0.02,0.17,-0.38,-34.00,14.00,-32.0015494.00,-7.59,-0.88,-6.25,-0.02,0.06,-0.29,-34.00,14.00,-32.0015506.00,-7.59,-0.88,-6.25,-0.02,0.06,-0.29,-34.00,14.00,-32.0015518.00,-7.66,-1.17,-5.53,-0.05,0.02,-0.16,-33.00,17.00,-28.0015530.00,-7.66,-1.17,-5.53,-0.05,0.02,-0.16,-33.00,17.00,-28.0015543.00,-7.10,-2.31,-6.29,-0.17,0.13,0.11,-33.00,17.00,-28.0015555.00,-7.08,-2.48,-6.61,-0.36,0.11,0.65,-33.00,17.00,-28.0015567.00,-7.08,-2.48,-6.61,-0.36,0.11,0.65,-33.00,17.00,-28.0015579.00,-8.01,-1.60,-6.19,-0.59,0.02,1.17,-33.00,17.00,-28.0015592.00,-8.01,-1.60,-6.19,-0.59,0.02,1.17,-33.00,17.00,-28.0015604.00,-6.79,-2.90,-6.25,-0.82,0.02,1.62,-33.00,17.00,-28.0015616.00,-4.32,-3.34,-8.62,-1.27,-0.05,2.62,-33.00,17.00,-28.0015627.00,-4.32,-3.34,-8.62,-1.27,-0.05,2.62,-33.00,17.00,-28.0015640.00,-3.76,1.17,-8.41,-1.60,-0.72,3.77,-33.00,17.00,-28.0015652.00,-3.76,1.17,-8.41,-1.60,-0.72,3.77,-33.00,17.00,-28.0015664.00,-7.25,7.07,-8.06,-1.37,-1.54,4.06,-30.00,1.00,-32.0015675.00,-13.13,10.23,-5.59,-1.11,-2.23,3.09,-30.00,1.00,-32.0015688.00,-13.13,10.23,-5.59,-1.11,-2.23,3.09,-30.00,1.00,-32.0015699.00,-12.15,13.04,-0.08,-0.42,-2.03,1.18,-30.00,1.00,-32.0015711.00,-12.15,13.04,-0.08,-0.42,-2.03,1.18,-30.00,1.00,-32.0015722.00,-8.08,9.14,-8.42,0.16,-1.14,-1.40,-30.00,1.00,-32.0015735.00,-6.28,3.51,-3.47,1.40,-1.79,-2.81,-30.00,1.00,-32.0015747.00,-6.28,3.51,-3.47,1.40,-1.79,-2.81,-30.00,1.00,-32.0015758.00,-7.46,-0.32,-1.22,1.91,-1.60,-2.49,-30.00,1.00,-32.0015770.00,-7.46,-0.32,-1.22,1.91,-1.60,-2.49,-30.00,1.00,-32.0015782.00,-8.20,1.38,1.02,2.29,-0.54,-1.34,-34.00,8.00,-44.0015794.00,-6.89,0.44,-2.71,2.03,0.65,-1.10,-34.00,8.00,-44.0015806.00,-6.89,0.44,-2.71,2.03,0.65,-1.10,-34.00,8.00,-44.0015818.00,-5.42,-2.35,-4.04,1.35,0.56,-1.04,-34.00,8.00,-44.0015831.00,-5.42,-2.35,-4.04,1.35,0.56,-1.04,-34.00,8.00,-44.0015842.00,-7.88,0.11,-3.66,0.36,-0.06,-0.71,-34.00,8.00,-44.0015854.00,-17.99,9.52,-9.95,0.27,0.21,-0.51,-34.00,8.00,-44.0015865.00,-17.99,9.52,-9.95,0.27,0.21,-0.51,-34.00,8.00,-44.0015879.00,-7.33,-5.97,-3.09,0.43,-0.25,-2.34,-34.00,8.00,-44.0015890.00,-7.33,-5.97,-3.09,0.43,-0.25,-2.34,-34.00,8.00,-44.0015902.00,-7.48,-1.70,-3.69,0.28,-0.49,-1.14,-36.00,17.00,-44.0015914.00,-7.78,-0.69,-4.40,0.27,-0.54,-0.53,-36.00,17.00,-44.0015927.00,-7.78,-0.69,-4.40,0.27,-0.54,-0.53,-36.00,17.00,-44.0015939.00,-9.05,-1.53,-3.42,0.31,-0.71,-0.43,-36.00,17.00,-44.0015950.00,-9.05,-1.53,-3.42,0.31,-0.71,-0.43,-36.00,17.00,-44.0015962.00,-9.52,-1.84,-2.34,0.23,-0.61,-0.14,-36.00,17.00,-44.0015976.00,-9.74,-1.67,-2.63,0.06,-0.25,0.14,-36.00,17.00,-44.0015987.00,-9.74,-1.67,-2.63,0.06,-0.25,0.14,-36.00,17.00,-44.0015998.00,-9.89,-0.49,-3.42,-0.09,0.03,0.33,-36.00,17.00,-44.0016010.00,-9.89,-0.49,-3.42,-0.09,0.03,0.33,-36.00,17.00,-44.0016023.00,-9.09,0.12,-5.24,-0.02,0.20,0.33,-39.00,22.00,-46.0016035.00,-8.69,0.69,-5.76,0.15,0.07,0.32,-39.00,22.00,-46.0016046.00,-8.69,0.69,-5.76,0.15,0.07,0.32,-39.00,22.00,-46.0016058.00,-9.14,0.82,-4.77,0.21,-0.16,0.17,-39.00,22.00,-46.0016071.00,-9.14,0.82,-4.77,0.21,-0.16,0.17,-39.00,22.00,-46.0016084.00,-9.15,0.05,-4.20,0.15,-0.30,-0.04,-39.00,22.00,-46.0016096.00,-9.78,-0.30,-3.11,0.12,-0.31,-0.08,-39.00,22.00,-46.0016107.00,-9.78,-0.30,-3.11,0.12,-0.31,-0.08,-39.00,22.00,-46.0016120.00,-9.46,-0.63,-3.32,0.09,-0.15,-0.03,-39.00,22.00,-46.0016132.00,-9.46,-0.63,-3.32,0.09,-0.15,-0.03,-39.00,22.00,-46.0016144.00,-9.52,-0.23,-3.28,0.10,-0.07,0.06,-39.00,22.00,-46.0016155.00,-9.68,-0.37,-3.33,0.09,-0.03,0.03,-36.00,15.00,-44.0016168.00,-9.68,-0.37,-3.33,0.09,-0.03,0.03,-36.00,15.00,-44.0016180.00,-9.42,-0.30,-3.74,0.03,0.02,0.02,-36.00,15.00,-44.0016191.00,-9.42,-0.30,-3.74,0.03,0.02,0.02,-36.00,15.00,-44.0016203.00,-9.35,-0.15,-3.84,0.03,0.02,0.02,-36.00,15.00,-44.0016216.00,-9.27,-0.12,-4.05,0.02,0.02,0.01,-36.00,15.00,-44.0016228.00,-9.27,-0.12,-4.05,0.02,0.02,0.01,-36.00,15.00,-44.0016239.00,-9.28,0.00,-4.01,0.01,-0.01,0.02,-36.00,15.00,-44.0016251.00,-9.28,0.00,-4.01,0.01,-0.01,0.02,-36.00,15.00,-44.0016264.00,-9.14,0.11,-4.20,0.02,-0.05,-0.01,-36.00,15.00,-44.0016276.00,-8.98,0.24,-4.47,0.07,-0.14,-0.04,-39.00,15.00,-46.0016288.00,-8.98,0.24,-4.47,0.07,-0.14,-0.04,-39.00,15.00,-46.0016299.00,-9.42,0.08,-3.79,0.13,-0.26,-0.06,-39.00,15.00,-46.0016313.00,-9.42,0.08,-3.79,0.13,-0.26,-0.06,-39.00,15.00,-46.0016325.00,-9.52,-0.80,-3.13,0.06,-0.17,-0.12,-39.00,15.00,-46.0016337.00,-9.48,-0.31,-3.32,-0.03,-0.07,-0.07,-39.00,15.00,-46.0016348.00,-9.48,-0.31,-3.32,-0.03,-0.07,-0.07,-39.00,15.00,-46.0016362.00,-9.40,0.27,-4.45,-0.08,-0.08,-0.06,-39.00,15.00,-46.0016374.00,-9.40,0.27,-4.45,-0.08,-0.08,-0.06,-39.00,15.00,-46.0016385.00,-9.35,0.04,-4.15,-0.07,-0.18,-0.10,-39.00,15.00,-46.0016397.00,-10.08,0.62,-1.71,-0.06,-0.53,-0.13,-39.00,21.00,-48.0016410.00,-10.08,0.62,-1.71,-0.06,-0.53,-0.13,-39.00,21.00,-48.0016422.00,-9.35,-1.19,-3.17,-0.03,-0.30,-0.28,-39.00,21.00,-48.0016434.00,-9.35,-1.19,-3.17,-0.03,-0.30,-0.28,-39.00,21.00,-48.0016444.00,-9.48,-0.45,-3.49,-0.11,-0.19,-0.20,-39.00,21.00,-48.0016458.00,-9.53,-0.16,-3.62,-0.15,-0.18,-0.21,-39.00,21.00,-48.0016470.00,-9.53,-0.16,-3.62,-0.15,-0.18,-0.21,-39.00,21.00,-48.0016481.00,-9.52,-0.46,-3.29,-0.13,-0.22,-0.24,-39.00,21.00,-48.0016492.00,-9.52,-0.46,-3.29,-0.13,-0.22,-0.24,-39.00,21.00,-48.0016504.00,-9.52,-0.43,-3.27,-0.10,-0.22,-0.24,-39.00,21.00,-48.0016516.00,-9.51,-0.87,-2.99,-0.07,-0.20,-0.24,-39.00,22.00,-50.0016528.00,-9.51,-0.87,-2.99,-0.07,-0.20,-0.24,-39.00,22.00,-50.0016540.00,-9.42,-1.48,-2.66,-0.08,-0.16,-0.18,-39.00,22.00,-50.0016553.00,-9.42,-1.48,-2.66,-0.08,-0.16,-0.18,-39.00,22.00,-50.0016565.00,-9.43,-1.83,-2.35,-0.13,-0.07,-0.03,-39.00,22.00,-50.0016576.00,-9.55,-0.64,-3.17,-0.22,0.04,0.16,-39.00,22.00,-50.0016587.00,-9.55,-0.64,-3.17,-0.22,0.04,0.16,-39.00,22.00,-50.0016600.00,-9.67,0.27,-3.80,-0.22,0.05,0.17,-39.00,22.00,-50.0016612.00,-9.67,0.27,-3.80,-0.22,0.05,0.17,-39.00,22.00,-50.0016624.00,-9.69,0.57,-3.71,-0.17,-0.05,0.02,-39.00,22.00,-50.0016635.00,-9.56,-0.30,-3.21,-0.10,-0.12,-0.15,-39.00,22.00,-50.0016648.00,-9.56,-0.30,-3.21,-0.10,-0.12,-0.15,-39.00,22.00,-50.0016660.00,-9.54,-0.88,-2.77,-0.05,-0.11,-0.16,-40.00,19.00,-53.0016672.00,-9.54,-0.88,-2.77,-0.05,-0.11,-0.16,-40.00,19.00,-53.0016684.00,-9.50,-1.09,-2.88,-0.04,-0.05,-0.09,-40.00,19.00,-53.0016697.00,-9.53,-0.98,-3.06,-0.05,0.00,-0.00,-40.00,19.00,-53.0016709.00,-9.53,-0.98,-3.06,-0.05,0.00,-0.00,-40.00,19.00,-53.0016721.00,-9.58,-0.45,-3.23,-0.06,0.02,0.06,-40.00,19.00,-53.0016735.00,-9.63,-0.17,-3.43,-0.04,0.00,0.04,-40.00,19.00,-53.0016747.00,-9.63,-0.17,-3.43,-0.04,0.00,0.04,-40.00,19.00,-53.0016758.00,-9.61,-0.33,-3.23,-0.02,-0.05,-0.03,-40.00,19.00,-53.0016770.00,-9.61,-0.33,-3.23,-0.02,-0.05,-0.03,-40.00,19.00,-53.0016784.00,-9.55,-0.91,-2.88,-0.04,-0.07,-0.06,-37.00,19.00,-55.0016795.00,-9.51,-1.16,-2.77,-0.07,-0.03,-0.00,-37.00,19.00,-55.0016807.00,-9.51,-1.16,-2.77,-0.07,-0.03,-0.00,-37.00,19.00,-55.0016819.00,-9.61,-0.40,-3.28,-0.11,0.02,0.08,-37.00,19.00,-55.0016832.00,-9.61,-0.40,-3.28,-0.11,0.02,0.08,-37.00,19.00,-55.0016842.00,-9.61,-0.18,-3.24,-0.10,-0.00,0.06,-37.00,19.00,-55.0016854.00,-9.61,-0.18,-3.24,-0.10,-0.00,0.06,-37.00,19.00,-55.0016866.00,-9.63,-0.28,-3.09,-0.09,-0.03,-0.00,-37.00,19.00,-55.0016879.00,-9.57,-0.83,-3.00,-0.10,-0.03,-0.04,-37.00,19.00,-55.0016891.00,-9.57,-0.83,-3.00,-0.10,-0.03,-0.04,-37.00,19.00,-55.0016903.00,-9.65,-0.86,-3.10,-0.15,-0.04,-0.01,-37.00,21.00,-53.0016914.00,-9.65,-0.86,-3.10,-0.15,-0.04,-0.01,-37.00,21.00,-53.0016928.00,-10.02,0.48,-2.80,-0.18,-0.09,-0.05,-37.00,21.00,-53.0016940.00,-8.66,-4.91,-1.79,-0.22,-0.09,-0.39,-37.00,21.00,-53.0016951.00,-8.66,-4.91,-1.79,-0.22,-0.09,-0.39,-37.00,21.00,-53.0016963.00,-9.91,0.56,-3.26,-0.25,0.03,0.18,-37.00,21.00,-53.0016967.00,-9.91,0.56,-3.26,-0.25,0.03,0.18,-37.00,21.00,-53.0017046.00,-9.28,-2.08,-2.38,-0.25,-0.08,-0.49,-37.00,21.00,-53.0017122.00,-9.47,-0.69,-3.24,-0.06,0.03,-0.12,-37.00,21.00,-53.0017201.00,-9.65,-0.13,-3.25,-0.03,0.01,0.07,-39.00,22.00,-55.0017290.00,-9.61,-0.79,-2.97,-0.02,-0.01,0.03,-37.00,24.00,-51.0017301.00,-9.62,-0.71,-2.89,0.00,-0.01,0.03,-37.00,24.00,-51.0017313.00,-9.62,-0.71,-2.89,0.00,-0.01,0.03,-37.00,24.00,-51.0017323.00,-9.60,-0.87,-2.83,0.01,0.00,0.01,-37.00,24.00,-51.0017337.00,-9.58,-0.95,-3.02,-0.02,0.02,0.02,-37.00,24.00,-51.0017349.00,-9.58,-0.95,-3.02,-0.02,0.02,0.02,-37.00,24.00,-51.0017359.00,-9.59,-0.74,-3.10,-0.05,0.01,0.03,-37.00,24.00,-51.0017371.00,-9.59,-0.74,-3.10,-0.05,0.01,0.03,-37.00,24.00,-51.0017384.00,-9.62,-0.73,-2.89,-0.05,-0.01,0.01,-37.00,24.00,-51.0017395.00,-9.62,-0.73,-2.89,-0.05,-0.01,0.01,-37.00,24.00,-51.0017407.00,-9.60,-0.89,-2.99,-0.05,-0.01,-0.00,-36.00,24.00,-57.0017418.00,-9.60,-0.76,-3.07,-0.04,-0.01,-0.01,-36.00,24.00,-57.0017431.00,-9.60,-0.76,-3.07,-0.04,-0.01,-0.01,-36.00,24.00,-57.0017443.00,-9.61,-0.74,-2.91,-0.01,-0.02,-0.03,-36.00,24.00,-57.0017455.00,-9.61,-0.74,-2.91,-0.01,-0.02,-0.03,-36.00,24.00,-57.0017466.00,-9.57,-1.08,-2.85,0.02,-0.01,-0.04,-36.00,24.00,-57.0017479.00,-9.58,-1.01,-2.82,0.01,0.00,-0.01,-36.00,24.00,-57.0017490.00,-9.58,-1.01,-2.82,0.01,0.00,-0.01,-36.00,24.00,-57.0017502.00,-9.59,-1.06,-2.80,0.01,0.02,0.01,-36.00,24.00,-57.0017514.00,-9.59,-1.06,-2.80,0.01,0.02,0.01,-36.00,24.00,-57.0017527.00,-9.60,-0.96,-3.07,-0.02,0.03,0.04,-36.00,24.00,-57.0017538.00,-9.63,-0.68,-3.19,-0.03,0.00,0.05,-39.00,26.00,-55.0017550.00,-9.63,-0.68,-3.19,-0.03,0.00,0.05,-39.00,26.00,-55.0017561.00,-9.62,-0.77,-3.07,-0.01,-0.04,0.01,-39.00,26.00,-55.0017574.00,-9.62,-0.77,-3.07,-0.01,-0.04,0.01,-39.00,26.00,-55.0017585.00,-9.57,-1.25,-2.73,0.02,-0.05,-0.00,-39.00,26.00,-55.0017597.00,-9.56,-1.40,-2.80,0.04,-0.02,0.05,-39.00,26.00,-55.0017608.00,-9.56,-1.40,-2.80,0.04,-0.02,0.05,-39.00,26.00,-55.0017621.00,-9.84,-0.27,-2.30,0.08,0.01,0.10,-39.00,26.00,-55.0017633.00,-9.84,-0.27,-2.30,0.08,0.01,0.10,-39.00,26.00,-55.0017645.00,-9.27,1.55,-1.76,-0.23,0.23,-0.62,-39.00,26.00,-55.0017657.00,-9.76,-2.43,-4.40,-0.17,0.33,-1.21,-40.00,24.00,-55.0017671.00,-9.76,-2.43,-4.40,-0.17,0.33,-1.21,-40.00,24.00,-55.0017682.00,-10.06,0.95,-4.33,-0.08,0.13,-0.75,-40.00,24.00,-55.0017693.00,-10.06,0.95,-4.33,-0.08,0.13,-0.75,-40.00,24.00,-55.0017705.00,-9.36,-0.75,-4.11,0.43,0.25,-0.67,-40.00,24.00,-55.0017718.00,-9.01,-1.42,-2.66,0.66,0.32,-0.70,-40.00,24.00,-55.0017730.00,-9.01,-1.42,-2.66,0.66,0.32,-0.70,-40.00,24.00,-55.0017741.00,-9.23,-2.83,-3.26,0.63,0.35,-0.72,-40.00,24.00,-55.0017753.00,-9.23,-2.83,-3.26,0.63,0.35,-0.72,-40.00,24.00,-55.0017766.00,-9.33,-2.41,-2.76,0.42,0.36,-0.53,-40.00,24.00,-55.0017778.00,-9.12,-4.51,-1.46,0.43,0.32,-0.41,-39.00,33.00,-55.0017790.00,-9.12,-4.51,-1.46,0.43,0.32,-0.41,-39.00,33.00,-55.0017802.00,-9.35,-3.23,-3.75,0.07,0.41,0.09,-39.00,33.00,-55.0017815.00,-9.35,-3.23,-3.75,0.07,0.41,0.09,-39.00,33.00,-55.0017827.00,-9.61,-0.75,-3.72,-0.17,0.24,0.27,-39.00,33.00,-55.0017838.00,-9.46,-0.75,-4.49,-0.17,0.04,0.02,-39.00,33.00,-55.0017850.00,-9.46,-0.75,-4.49,-0.17,0.04,0.02,-39.00,33.00,-55.0017863.00,-9.41,-0.99,-3.92,-0.01,-0.13,-0.19,-39.00,33.00,-55.0017875.00,-9.41,-0.99,-3.92,-0.01,-0.13,-0.19,-39.00,33.00,-55.0017886.00,-9.19,-2.89,-3.01,0.21,-0.20,-0.34,-39.00,33.00,-55.0017898.00,-9.10,-3.82,-2.38,0.09,-0.18,-0.20,-39.00,33.00,-55.0017911.00,-9.10,-3.82,-2.38,0.09,-0.18,-0.20,-39.00,33.00,-55.0017923.00,-9.21,-2.78,-2.75,-0.09,-0.09,0.06,-39.00,33.00,-55.0017934.00,-9.21,-2.78,-2.75,-0.09,-0.09,0.06,-39.00,33.00,-55.0017945.00,-9.35,-1.71,-3.26,-0.13,-0.02,0.14,-39.00,33.00,-55.0017958.00,-9.45,-1.32,-3.40,-0.10,-0.01,0.06,-39.00,33.00,-55.0017970.00,-9.45,-1.32,-3.40,-0.10,-0.01,0.06,-39.00,33.00,-55.0017982.00,-9.42,-1.81,-3.25,-0.10,-0.04,-0.04,-39.00,33.00,-55.0017994.00,-9.42,-1.81,-3.25,-0.10,-0.04,-0.04,-39.00,33.00,-55.0018008.00,-9.19,-2.94,-3.58,-0.12,-0.09,-0.05,-39.00,33.00,-55.0018019.00,-9.18,-2.49,-2.94,-0.03,-0.15,0.07,-39.00,33.00,-55.0018031.00,-9.18,-2.49,-2.94,-0.03,-0.15,0.07,-39.00,33.00,-55.0018044.00,-9.36,-1.36,-3.26,0.09,-0.07,0.07,-37.00,33.00,-55.0018056.00,-9.36,-1.36,-3.26,0.09,-0.07,0.07,-37.00,33.00,-55.0018067.00,-9.39,-1.41,-3.60,0.22,-0.04,-0.08,-37.00,33.00,-55.0018079.00,-9.44,-1.95,-3.24,0.26,-0.10,-0.19,-37.00,33.00,-55.0018091.00,-9.44,-1.95,-3.24,0.26,-0.10,-0.19,-37.00,33.00,-55.0018103.00,-9.80,-3.52,-3.51,0.19,-0.21,-0.16,-37.00,33.00,-55.0018115.00,-9.80,-3.52,-3.51,0.19,-0.21,-0.16,-37.00,33.00,-55.0018126.00,-9.81,-3.19,-3.05,0.08,-0.60,0.20,-37.00,33.00,-55.0018139.00,-10.55,0.31,-5.70,-0.07,-1.04,0.45,-37.00,33.00,-55.0018151.00,-10.55,0.31,-5.70,-0.07,-1.04,0.45,-37.00,33.00,-55.0018162.00,-9.14,-2.33,-0.35,0.04,-1.39,0.32,-37.00,28.00,-59.0018174.00,-9.14,-2.33,-0.35,0.04,-1.39,0.32,-37.00,28.00,-59.0018187.00,-8.93,-3.91,-0.89,-0.07,-1.16,0.33,-37.00,28.00,-59.0018199.00,-9.34,-2.37,-1.96,-0.41,-0.59,0.48,-37.00,28.00,-59.0018210.00,-9.34,-2.37,-1.96,-0.41,-0.59,0.48,-37.00,28.00,-59.0018222.00,-9.34,-2.67,0.32,-0.35,-0.36,0.62,-37.00,28.00,-59.0018235.00,-9.34,-2.67,0.32,-0.35,-0.36,0.62,-37.00,28.00,-59.0018246.00,-9.24,-2.31,-2.76,-0.57,-0.07,0.75,-37.00,28.00,-59.0018258.00,-9.86,0.45,-3.84,-0.54,-0.01,0.67,-37.00,28.00,-59.0018269.00,-9.86,0.45,-3.84,-0.54,-0.01,0.67,-37.00,28.00,-59.0018283.00,-9.99,0.33,-2.69,-0.26,-0.15,0.33,-39.00,28.00,-63.0018294.00,-9.99,0.33,-2.69,-0.26,-0.15,0.33,-39.00,28.00,-63.0018306.00,-9.80,-1.14,-1.30,-0.02,-0.20,0.06,-39.00,28.00,-63.0018318.00,-9.65,-2.14,-1.09,-0.07,-0.09,0.02,-39.00,28.00,-63.0018331.00,-9.65,-2.14,-1.09,-0.07,-0.09,0.02,-39.00,28.00,-63.0018342.00,-9.74,-1.32,-1.83,-0.12,0.05,0.13,-39.00,28.00,-63.0018354.00,-9.74,-1.32,-1.83,-0.12,0.05,0.13,-39.00,28.00,-63.0018366.00,-9.81,-0.86,-2.60,-0.05,0.08,0.13,-39.00,28.00,-63.0018380.00,-9.78,-1.13,-2.44,0.07,0.01,0.06,-39.00,28.00,-63.0018391.00,-9.78,-1.13,-2.44,0.07,0.01,0.06,-39.00,28.00,-63.0018402.00,-9.72,-1.39,-2.00,0.13,-0.05,0.02,-39.00,28.00,-63.0018414.00,-9.72,-1.39,-2.00,0.13,-0.05,0.02,-39.00,28.00,-63.0018427.00,-9.71,-1.69,-1.66,0.16,-0.05,0.03,-37.00,28.00,-65.0018439.00,-9.71,-1.64,-1.83,0.21,0.00,0.09,-37.00,28.00,-65.0018451.00,-9.71,-1.64,-1.83,0.21,0.00,0.09,-37.00,28.00,-65.0018462.00,-9.92,-0.19,-2.63,0.46,0.04,0.11,-37.00,28.00,-65.0018475.00,-9.92,-0.19,-2.63,0.46,0.04,0.11,-37.00,28.00,-65.0018487.00,-10.01,0.30,-2.06,1.07,0.03,-0.05,-37.00,28.00,-65.0018499.00,-9.86,-1.06,0.08,1.67,0.12,-0.30,-37.00,28.00,-65.0018511.00,-9.86,-1.06,0.08,1.67,0.12,-0.30,-37.00,28.00,-65.0018525.00,-9.45,-3.79,1.30,1.71,0.44,-0.35,-37.00,28.00,-65.0018537.00,-9.30,-4.29,0.38,1.14,0.87,-0.02,-39.00,24.00,-61.0018549.00,-9.30,-4.29,0.38,1.14,0.87,-0.02,-39.00,24.00,-61.0018560.00,-9.17,-3.59,-1.85,0.42,1.16,0.39,-39.00,24.00,-61.0018573.00,-9.17,-3.59,-1.85,0.42,1.16,0.39,-39.00,24.00,-61.0018585.00,-9.53,-0.73,-4.64,-0.10,1.14,0.66,-39.00,24.00,-61.0018596.00,-9.53,-0.73,-4.64,-0.10,1.14,0.66,-39.00,24.00,-61.0018608.00,-9.81,0.88,-5.96,-0.04,0.79,0.52,-39.00,24.00,-61.0018621.00,-9.83,-0.16,-3.63,0.19,0.32,0.18,-39.00,24.00,-61.0018633.00,-9.83,-0.16,-3.63,0.19,0.32,0.18,-39.00,24.00,-61.0018644.00,-9.70,-2.33,-1.08,0.63,0.29,0.01,-39.00,24.00,-61.0018656.00,-9.70,-2.33,-1.08,0.63,0.29,0.01,-39.00,24.00,-61.0018669.00,-14.11,-5.20,5.00,1.24,1.06,0.11,-37.00,22.00,-55.0018680.00,-13.25,-6.27,2.66,-0.76,1.98,0.47,-37.00,22.00,-55.0018692.00,-13.25,-6.27,2.66,-0.76,1.98,0.47,-37.00,22.00,-55.0018703.00,-5.45,1.70,-3.68,-2.34,2.23,0.77,-37.00,22.00,-55.0018717.00,-5.45,1.70,-3.68,-2.34,2.23,0.77,-37.00,22.00,-55.0018729.00,-4.39,0.69,-9.71,-2.11,1.44,-0.09,-37.00,22.00,-55.0018741.00,-7.62,-1.25,-8.37,-1.34,0.23,0.04,-37.00,22.00,-55.0018753.00,-7.62,-1.25,-8.37,-1.34,0.23,0.04,-37.00,22.00,-55.0018766.00,-8.98,3.45,-7.23,-0.82,-0.03,0.81,-37.00,22.00,-55.0018777.00,-7.92,3.25,-8.23,-0.21,0.09,0.53,-39.00,17.00,-55.0018789.00,-7.92,3.25,-8.23,-0.21,0.09,0.53,-39.00,17.00,-42.0018800.00,-8.50,-0.32,-4.76,0.27,-0.31,0.02,-39.00,17.00,-42.0018812.00,-8.50,-0.32,-4.76,0.27,-0.31,0.02,-39.00,17.00,-42.0018824.00,-9.74,-0.54,-3.65,0.51,-0.30,0.20,-39.00,17.00,-42.0018836.00,-9.74,-0.54,-3.65,0.51,-0.30,0.20,-39.00,17.00,-42.0018848.00,-10.41,-1.05,-2.05,0.43,-0.28,0.14,-39.00,17.00,-42.0018862.00,-10.51,-1.29,-1.96,0.18,-0.06,0.04,-39.00,17.00,-42.0018873.00,-10.51,-1.29,-1.96,0.18,-0.06,0.04,-39.00,17.00,-42.0018885.00,-9.29,-1.04,-4.25,-0.09,0.13,0.07,-39.00,17.00,-42.0018896.00,-9.29,-1.04,-4.25,-0.09,0.13,0.07,-39.00,17.00,-42.0018910.00,-8.87,0.29,-4.85,-0.01,0.00,0.26,-39.00,17.00,-42.0018921.00,-9.36,0.14,-4.26,0.10,-0.17,0.19,-40.00,19.00,-44.0018933.00,-9.36,0.14,-4.26,0.10,-0.17,0.19,-40.00,19.00,-44.0018946.00,-9.04,-0.35,-4.36,0.08,-0.14,0.08,-40.00,19.00,-44.0018959.00,-9.25,-0.34,-3.87,0.04,-0.16,0.04,-40.00,19.00,-44.0018971.00,-9.25,-0.34,-3.87,0.04,-0.16,0.04,-40.00,19.00,-44.0018983.00,-9.00,-0.88,-4.41,0.05,-0.17,0.06,-40.00,19.00,-44.0018995.00,-9.00,-0.88,-4.41,0.05,-0.17,0.06,-40.00,19.00,-44.0019008.00,-9.17,-0.25,-4.12,0.07,-0.30,0.16,-40.00,19.00,-44.0019020.00,-9.46,0.37,-4.03,0.08,-0.42,0.08,-40.00,19.00,-44.0019031.00,-9.46,0.37,-4.03,0.08,-0.42,0.08,-40.00,19.00,-44.0019043.00,-9.98,-0.32,-3.37,0.08,-0.50,-0.15,-37.00,17.00,-48.0019056.00,-9.98,-0.32,-3.37,0.08,-0.50,-0.15,-37.00,17.00,-48.0019068.00,-10.03,-0.30,-1.97,-0.07,-0.42,-0.22,-37.00,17.00,-48.0019079.00,-9.12,-0.96,-4.25,-0.19,-0.25,-0.26,-37.00,17.00,-48.0019091.00,-9.12,-0.96,-4.25,-0.19,-0.25,-0.26,-37.00,17.00,-48.0019104.00,-9.97,0.18,-2.10,-0.19,-0.52,-0.12,-37.00,17.00,-48.0019116.00,-9.97,0.18,-2.10,-0.19,-0.52,-0.12,-37.00,17.00,-48.0019127.00,-9.51,0.43,-4.81,-0.29,-0.32,-0.29,-37.00,17.00,-48.0019139.00,-9.57,0.78,-4.28,-0.31,-0.52,-0.55,-37.00,17.00,-48.0019152.00,-9.57,0.78,-4.28,-0.31,-0.52,-0.55,-37.00,17.00,-48.0019163.00,-9.48,-0.79,-2.98,-0.17,-0.68,-0.79,-37.00,22.00,-53.0019175.00,-9.48,-0.79,-2.98,-0.17,-0.68,-0.79,-37.00,22.00,-53.0019186.00,-9.35,-2.51,-1.66,-0.09,-0.64,-0.77,-37.00,22.00,-53.0019200.00,-9.44,-2.51,-1.85,-0.20,-0.44,-0.52,-37.00,22.00,-53.0019211.00,-9.44,-2.51,-1.85,-0.20,-0.44,-0.52,-37.00,22.00,-53.0019223.00,-9.52,-1.97,-2.32,-0.20,-0.25,-0.26,-37.00,22.00,-53.0019235.00,-9.52,-1.97,-2.32,-0.20,-0.25,-0.26,-37.00,22.00,-53.0019248.00,-9.67,-0.92,-2.52,-0.16,-0.15,-0.11,-37.00,22.00,-53.0019259.00,-9.66,-0.97,-2.46,-0.06,-0.09,-0.13,-37.00,22.00,-53.0019271.00,-9.66,-0.97,-2.46,-0.06,-0.09,-0.13,-37.00,22.00,-53.0019283.00,-9.57,-1.90,-1.98,0.02,-0.02,-0.14,-37.00,24.00,-57.0019297.00,-9.57,-1.90,-1.98,0.02,-0.02,-0.14,-37.00,24.00,-57.0019308.00,-9.42,-2.77,-1.87,-0.07,0.10,-0.01,-37.00,24.00,-57.0019320.00,-9.45,-2.18,-2.27,-0.24,0.23,0.23,-37.00,24.00,-57.0019332.00,-9.45,-2.18,-2.27,-0.24,0.23,0.23,-37.00,24.00,-57.0019345.00,-9.58,-0.88,-3.24,-0.30,0.31,0.39,-37.00,24.00,-57.0019356.00,-9.58,-0.88,-3.24,-0.30,0.31,0.39,-37.00,24.00,-57.0019367.00,-9.71,0.16,-3.93,-0.25,0.25,0.36,-37.00,24.00,-57.0019379.00,-9.72,0.07,-3.61,-0.14,0.10,0.18,-37.00,24.00,-57.0019392.00,-9.72,0.07,-3.61,-0.14,0.10,0.18,-37.00,24.00,-57.0019404.00,-9.66,-0.41,-3.08,-0.06,-0.01,0.00,-37.00,24.00,-57.0019416.00,-9.66,-0.41,-3.08,-0.06,-0.01,0.00,-37.00,24.00,-57.0019428.00,-9.58,-1.14,-2.71,-0.04,-0.03,-0.08,-37.00,24.00,-55.0019432.00,-9.58,-1.14,-2.71,-0.04,-0.03,-0.08,-37.00,24.00,-55.0019510.00,-9.62,-1.56,-3.12,-0.11,-0.06,-0.25,-37.00,24.00,-55.0019588.00,-9.07,-1.02,-2.69,0.27,0.47,-0.89,-39.00,26.00,-55.0019666.00,-9.51,-2.14,-2.92,0.04,0.21,-0.40,-37.00,31.00,-51.0019755.00,-9.27,-1.78,-4.06,-0.19,0.10,0.14,-37.00,31.00,-51.0019767.00,-9.29,-1.65,-3.72,-0.07,0.01,0.07,-37.00,31.00,-51.0019779.00,-9.24,-2.40,-3.11,-0.04,-0.04,-0.01,-37.00,33.00,-51.0019791.00,-9.24,-2.40,-3.11,-0.04,-0.04,-0.01,-37.00,33.00,-51.0019805.00,-9.21,-2.74,-1.62,0.10,-0.00,0.01,-37.00,33.00,-51.0019817.00,-9.21,-2.74,-1.62,0.10,-0.00,0.01,-37.00,33.00,-51.0019828.00,-9.24,-2.26,-3.44,-0.07,0.03,0.08,-37.00,33.00,-51.0019840.00,-9.26,-2.10,-3.40,-0.10,0.04,0.11,-37.00,33.00,-51.0019853.00,-9.26,-2.10,-3.40,-0.10,0.04,0.11,-37.00,33.00,-51.0019864.00,-9.27,-1.94,-3.28,-0.01,0.05,0.09,-37.00,33.00,-51.0019876.00,-9.27,-1.94,-3.28,-0.01,0.05,0.09,-37.00,33.00,-51.0019888.00,-9.26,-2.12,-3.32,0.00,0.07,0.05,-37.00,33.00,-51.0019902.00,-9.22,-2.29,-3.47,-0.05,0.06,0.04,-37.00,33.00,-51.0019913.00,-9.22,-2.29,-3.47,-0.05,0.06,0.04,-37.00,33.00,-51.0019925.00,-9.27,-1.95,-3.61,-0.10,0.04,0.05,-37.00,29.00,-48.0019937.00,-9.27,-1.95,-3.61,-0.10,0.04,0.05,-37.00,29.00,-48.0019950.00,-9.28,-1.66,-3.96,-0.11,-0.01,0.02,-37.00,29.00,-48.0019962.00,-9.33,-1.34,-3.84,0.02,-0.08,-0.07,-37.00,29.00,-48.0019973.00,-9.33,-1.34,-3.84,0.02,-0.08,-0.07,-37.00,29.00,-48.0019985.00,-9.26,-2.18,-3.19,0.21,-0.13,-0.18,-37.00,29.00,-48.0019998.00,-9.26,-2.18,-3.19,0.21,-0.13,-0.18,-37.00,29.00,-48.0020010.00,-9.16,-3.05,-2.46,0.16,-0.10,-0.18,-37.00,29.00,-48.0020021.00,-9.14,-3.13,-2.91,-0.02,0.00,-0.05,-37.00,29.00,-48.0020033.00,-9.14,-3.13,-2.91,-0.02,0.00,-0.05,-37.00,29.00,-48.0020047.00,-9.23,-2.10,-3.65,-0.16,0.04,0.07,-37.00,29.00,-51.0020058.00,-9.23,-2.10,-3.65,-0.16,0.04,0.07,-37.00,29.00,-51.0020070.00,-9.28,-1.79,-3.90,0.05,0.00,0.03,-37.00,29.00,-51.0020081.00,-9.31,-1.89,-3.28,0.03,-0.07,-0.05,-37.00,29.00,-51.0020094.00,-9.31,-1.89,-3.28,0.03,-0.07,-0.05,-37.00,29.00,-51.0020105.00,-9.21,-2.60,-2.84,0.05,-0.07,-0.08,-37.00,29.00,-51.0020117.00,-9.21,-2.60,-2.84,0.05,-0.07,-0.08,-37.00,29.00,-51.0020128.00,-9.16,-2.95,-2.83,-0.01,-0.01,-0.03,-37.00,29.00,-51.0020142.00,-9.29,-2.08,-3.40,-0.12,0.03,0.06,-37.00,29.00,-51.0020154.00,-9.29,-2.08,-3.40,-0.12,0.03,0.06,-37.00,29.00,-51.0020165.00,-9.39,-1.43,-3.98,-0.14,-0.00,0.03,-37.00,35.00,-55.0020177.00,-9.39,-1.43,-3.98,-0.14,-0.00,0.03,-37.00,35.00,-55.0020191.00,-9.31,-2.02,-3.32,-0.02,-0.06,-0.09,-37.00,35.00,-55.0020203.00,-9.54,-2.66,-3.12,-0.03,-0.07,-0.13,-37.00,35.00,-55.0020215.00,-9.54,-2.66,-3.12,-0.03,-0.07,-0.13,-37.00,35.00,-55.0020230.00,-8.23,-7.64,-6.49,-0.02,-0.25,0.19,-37.00,35.00,-55.0020241.00,-9.50,-0.96,-2.33,-0.30,-0.90,1.22,-37.00,35.00,-55.0020253.00,-9.50,-0.96,-2.33,-0.30,-0.90,1.22,-37.00,35.00,-55.0020264.00,-9.00,-4.23,-0.56,-0.27,-1.15,1.16,-37.00,35.00,-55.0020277.00,-9.00,-4.23,-0.56,-0.27,-1.15,1.16,-37.00,35.00,-55.0020289.00,-9.94,-0.30,-2.64,-0.95,-1.30,1.29,-37.00,35.00,-55.0020301.00,-9.37,-0.51,2.70,-0.69,-1.18,1.17,-39.00,28.00,-59.0020312.00,-9.37,-0.51,2.70,-0.69,-1.18,1.17,-39.00,28.00,-59.0020325.00,-10.67,1.17,-2.28,-0.62,-0.81,0.88,-39.00,28.00,-59.0020337.00,-10.67,1.17,-2.28,-0.62,-0.81,0.88,-39.00,28.00,-59.0020348.00,-8.71,-2.00,-4.47,-0.19,-0.52,0.37,-39.00,28.00,-59.0020360.00,-9.68,-0.36,-2.23,0.03,-0.40,0.09,-39.00,28.00,-59.0020373.00,-9.68,-0.36,-2.23,0.03,-0.40,0.09,-39.00,28.00,-59.0020384.00,-9.71,-1.55,-2.10,0.09,-0.22,-0.15,-39.00,28.00,-59.0020396.00,-9.71,-1.55,-2.10,0.09,-0.22,-0.15,-39.00,28.00,-59.0020408.00,-9.71,-2.18,-1.25,-0.01,-0.22,-0.07,-39.00,28.00,-59.0020421.00,-9.71,-1.96,-0.81,-0.10,-0.12,0.14,-39.00,26.00,-63.0020432.00,-9.71,-1.96,-0.81,-0.10,-0.12,0.14,-39.00,26.00,-63.0020444.00,-9.87,-0.64,-1.37,-0.12,0.05,0.28,-39.00,26.00,-63.0020455.00,-9.87,-0.64,-1.37,-0.12,0.05,0.28,-39.00,26.00,-63.0020468.00,-10.00,0.53,-1.99,-0.05,0.17,0.22,-39.00,26.00,-63.0020480.00,-9.99,0.68,-2.73,0.05,0.17,-0.03,-39.00,26.00,-63.0020491.00,-9.99,0.68,-2.73,0.05,0.17,-0.03,-39.00,26.00,-63.0020503.00,-9.68,-1.35,-2.72,0.17,0.06,-0.31,-39.00,26.00,-63.0020517.00,-9.68,-1.35,-2.72,0.17,0.06,-0.31,-39.00,26.00,-63.0020529.00,-9.38,-4.03,-1.86,0.23,-0.06,-0.24,-39.00,26.00,-63.0020540.00,-9.37,-3.28,-2.04,0.21,-0.05,0.24,-36.00,26.00,-63.0020552.00,-9.37,-3.28,-2.04,0.21,-0.05,0.24,-36.00,26.00,-63.0020565.00,-9.74,-1.30,-2.56,0.37,-0.03,0.62,-36.00,26.00,-63.0020577.00,-9.74,-1.30,-2.56,0.37,-0.03,0.62,-36.00,26.00,-63.0020588.00,-9.79,-0.96,-2.71,0.78,-0.05,0.72,-36.00,26.00,-63.0020599.00,-10.07,1.19,-2.24,1.13,-0.10,0.76,-36.00,26.00,-63.0020613.00,-10.07,1.19,-2.24,1.13,-0.10,0.76,-36.00,26.00,-63.0020625.00,-10.36,2.22,-0.36,1.79,-0.00,0.47,-36.00,26.00,-63.0020636.00,-10.36,2.22,-0.36,1.79,-0.00,0.47,-36.00,26.00,-63.0020647.00,-9.96,-0.12,0.76,2.65,0.39,0.04,-36.00,26.00,-63.0020660.00,-9.60,-2.98,2.44,2.56,0.85,-0.07,-37.00,22.00,-59.0020672.00,-9.60,-2.98,2.44,2.56,0.85,-0.07,-37.00,22.00,-59.0020682.00,-8.90,-5.34,1.53,1.51,1.42,0.26,-37.00,22.00,-59.0020694.00,-8.90,-5.34,1.53,1.51,1.42,0.26,-37.00,22.00,-59.0020707.00,-9.31,-0.71,-3.91,0.42,1.86,0.88,-37.00,22.00,-59.0020719.00,-9.31,-0.71,-3.91,0.42,1.86,0.88,-37.00,22.00,-59.0020731.00,-10.09,4.96,-7.39,0.28,1.77,0.91,-37.00,22.00,-59.0020743.00,-9.96,3.26,-3.12,1.08,1.27,0.05,-37.00,22.00,-59.0020756.00,-9.96,3.26,-3.12,1.08,1.27,0.05,-37.00,22.00,-59.0020768.00,-16.31,2.67,-3.44,0.93,1.47,-1.09,-37.00,22.00,-59.0020780.00,-13.19,-12.94,11.36,0.92,1.48,-2.33,-37.00,22.00,-59.0020792.00,-13.19,-12.94,11.36,0.92,1.48,-2.33,-37.00,22.00,-59.0020805.00,-5.69,-4.67,-0.81,-2.24,2.87,-0.76,-37.00,22.00,-44.0020816.00,-5.69,-4.67,-0.81,-2.24,2.87,-0.76,-37.00,22.00,-44.0020828.00,-3.62,1.03,-9.47,-2.75,2.66,-0.16,-37.00,22.00,-44.0020840.00,-4.39,2.02,-11.73,-2.20,1.08,-0.64,-37.00,22.00,-44.0020853.00,-4.39,2.02,-11.73,-2.20,1.08,-0.64,-37.00,22.00,-44.0020865.00,-4.07,-0.27,-11.67,-1.37,0.08,-0.58,-37.00,22.00,-44.0020877.00,-4.07,-0.27,-11.67,-1.37,0.08,-0.58,-37.00,22.00,-44.0020889.00,-5.59,2.98,-12.30,-0.75,-0.47,0.34,-37.00,22.00,-44.0020902.00,-8.81,3.25,-6.64,0.20,-1.07,0.46,-37.00,22.00,-44.0020912.00,-8.81,3.25,-6.64,0.20,-1.07,0.46,-37.00,22.00,-44.0020924.00,-9.03,-2.39,-3.12,0.59,-1.12,-0.10,-39.00,19.00,-38.0020936.00,-9.03,-2.39,-3.12,0.59,-1.12,-0.10,-39.00,19.00,-38.0020949.00,-9.97,-2.15,-1.78,0.39,-0.89,0.14,-39.00,19.00,-38.0020961.00,-11.70,-0.07,-1.84,0.11,-0.61,0.23,-39.00,19.00,-38.0020973.00,-11.70,-0.07,-1.84,0.11,-0.61,0.23,-39.00,19.00,-38.0020985.00,-10.25,-0.69,-2.93,-0.06,-0.29,-0.06,-39.00,19.00,-38.0020998.00,-10.25,-0.69,-2.93,-0.06,-0.29,-0.06,-39.00,19.00,-38.0021010.00,-9.07,-0.77,-4.46,-0.02,-0.14,-0.10,-39.00,19.00,-38.0021021.00,-9.27,-0.92,-4.07,0.05,-0.25,-0.06,-39.00,19.00,-38.0021033.00,-9.27,-0.92,-4.07,0.05,-0.25,-0.06,-39.00,19.00,-38.0021046.00,-9.43,-1.39,-3.88,0.06,-0.21,0.01,-40.00,17.00,-42.0021057.00,-9.43,-1.39,-3.88,0.06,-0.21,0.01,-40.00,17.00,-42.0021069.00,-9.37,-1.13,-4.08,0.05,-0.08,0.11,-40.00,17.00,-42.0021080.00,-9.01,-1.35,-4.30,0.07,-0.01,0.10,-40.00,17.00,-42.0021094.00,-9.01,-1.35,-4.30,0.07,-0.01,0.10,-40.00,17.00,-42.0021106.00,-8.96,-1.16,-4.78,0.10,-0.03,0.08,-40.00,17.00,-42.0021117.00,-8.96,-1.16,-4.78,0.10,-0.03,0.08,-40.00,17.00,-42.0021129.00,-8.91,-1.53,-4.25,0.10,-0.15,-0.01,-40.00,17.00,-42.0021143.00,-9.16,-1.47,-4.25,0.10,-0.16,0.01,-40.00,17.00,-42.0021154.00,-9.16,-1.47,-4.25,0.10,-0.16,0.01,-40.00,17.00,-42.0021166.00,-9.15,-1.73,-3.81,0.10,-0.15,0.07,-37.00,19.00,-44.0021178.00,-9.15,-1.73,-3.81,0.10,-0.15,0.07,-37.00,19.00,-44.0021192.00,-9.09,-1.40,-4.07,0.04,-0.16,0.10,-37.00,19.00,-44.0021203.00,-8.80,-0.61,-4.66,0.04,-0.24,0.03,-37.00,19.00,-44.0021216.00,-8.80,-0.61,-4.66,0.04,-0.24,0.03,-37.00,19.00,-44.0021228.00,-8.31,-0.50,-5.54,0.19,-0.41,-0.14,-37.00,19.00,-44.0021240.00,-10.42,-0.38,-3.72,0.20,-0.70,-0.18,-37.00,19.00,-44.0021252.00,-10.42,-0.38,-3.72,0.20,-0.70,-0.18,-37.00,19.00,-44.0021264.00,-9.73,-1.62,-1.38,0.07,-0.63,-0.25,-37.00,19.00,-44.0021276.00,-9.73,-1.62,-1.38,0.07,-0.63,-0.25,-37.00,19.00,-44.0021290.00,-9.29,-2.63,-2.50,-0.05,-0.21,-0.21,-37.00,19.00,-44.0021302.00,-9.40,-0.56,-4.57,-0.25,-0.07,-0.04,-36.00,19.00,-50.0021313.00,-9.40,-0.56,-4.57,-0.25,-0.07,-0.04,-36.00,19.00,-50.0021324.00,-9.42,0.33,-5.23,-0.23,-0.24,-0.14,-36.00,19.00,-50.0021338.00,-9.42,0.33,-5.23,-0.23,-0.24,-0.14,-36.00,19.00,-50.0021350.00,-9.45,-0.45,-3.80,-0.13,-0.54,-0.43,-36.00,19.00,-50.0021361.00,-9.37,-2.10,-2.15,-0.01,-0.59,-0.56,-36.00,19.00,-50.0021373.00,-9.37,-2.10,-2.15,-0.01,-0.59,-0.56,-36.00,19.00,-50.0021386.00,-9.37,-2.46,-1.92,-0.07,-0.38,-0.41,-36.00,19.00,-50.0021398.00,-9.37,-2.46,-1.92,-0.07,-0.38,-0.41,-36.00,19.00,-50.0021409.00,-9.38,-2.04,-2.95,-0.17,-0.17,-0.23,-36.00,19.00,-50.0021421.00,-9.48,-1.16,-3.59,-0.20,-0.13,-0.14,-37.00,24.00,-50.0021433.00,-9.48,-1.16,-3.59,-0.20,-0.13,-0.14,-37.00,24.00,-50.0021445.00,-9.50,-1.13,-3.35,-0.14,-0.18,-0.19,-37.00,24.00,-50.0021457.00,-9.50,-1.13,-3.35,-0.14,-0.18,-0.19,-37.00,24.00,-50.0021470.00,-9.41,-1.86,-3.08,-0.09,-0.22,-0.25,-37.00,24.00,-50.0021482.00,-9.37,-2.34,-2.52,-0.02,-0.19,-0.20,-37.00,24.00,-50.0021493.00,-9.37,-2.34,-2.52,-0.02,-0.19,-0.20,-37.00,24.00,-50.0021505.00,-9.35,-2.64,-2.34,-0.05,-0.11,-0.07,-37.00,24.00,-50.0021517.00,-9.35,-2.64,-2.34,-0.05,-0.11,-0.07,-37.00,24.00,-50.0021529.00,-9.43,-2.00,-2.95,-0.17,-0.02,0.08,-37.00,24.00,-50.0021541.00,-9.60,-1.02,-3.52,-0.22,-0.02,0.12,-37.00,24.00,-50.0021553.00,-9.60,-1.02,-3.52,-0.22,-0.02,0.12,-37.00,24.00,-55.0021567.00,-9.62,-1.08,-3.37,-0.16,-0.15,-0.02,-37.00,24.00,-55.0021578.00,-9.62,-1.08,-3.37,-0.16,-0.15,-0.02,-37.00,24.00,-55.0021590.00,-9.35,-2.42,-1.85,-0.15,-0.26,-0.27,-37.00,24.00,-55.0021602.00,-9.94,-0.48,-2.75,-0.18,-0.16,-0.33,-37.00,24.00,-55.0021615.00,-9.94,-0.48,-2.75,-0.18,-0.16,-0.33,-37.00,24.00,-55.0021626.00,-9.62,-4.30,-1.15,-0.21,-0.08,-0.66,-37.00,24.00,-55.0021637.00,-9.62,-4.30,-1.15,-0.21,-0.08,-0.66,-37.00,24.00,-55.0021649.00,-9.68,-1.47,-3.58,-0.11,0.05,-0.05,-37.00,24.00,-55.0021662.00,-10.18,4.02,-2.11,-0.24,-0.10,-0.11,-37.00,24.00,-55.0021674.00,-10.18,4.02,-2.11,-0.24,-0.10,-0.11,-37.00,24.00,-55.0021686.00,-8.40,-4.35,-4.73,-0.07,0.04,-1.16,-39.00,26.00,-57.0021698.00,-8.40,-4.35,-4.73,-0.07,0.04,-1.16,-39.00,26.00,-57.0021711.00,-9.26,-5.58,-3.15,-0.01,0.01,-0.83,-39.00,26.00,-57.0021723.00,-9.74,-0.27,-1.83,0.07,-0.07,-0.04,-39.00,26.00,-57.0021734.00,-9.74,-0.27,-1.83,0.07,-0.07,-0.04,-39.00,26.00,-57.0021746.00,-9.18,-2.32,-2.04,0.18,0.08,-0.18,-39.00,26.00,-57.0021760.00,-9.18,-2.32,-2.04,0.18,0.08,-0.18,-39.00,26.00,-57.0021771.00,-9.24,-3.45,-2.70,0.12,0.22,-0.32,-39.00,26.00,-57.0021783.00,-9.27,-2.36,-2.84,0.07,0.22,-0.16,-39.00,26.00,-57.0021795.00,-9.27,-2.36,-2.84,0.07,0.22,-0.16,-39.00,26.00,-57.0021809.00,-9.11,-2.48,-2.94,0.05,0.23,-0.12,-39.00,29.00,-55.0021821.00,-9.11,-2.48,-2.94,0.05,0.23,-0.12,-39.00,29.00,-55.0021832.00,-9.04,-2.02,-3.09,0.23,0.26,-0.13,-39.00,29.00,-55.0021844.00,-9.62,-1.72,-3.93,0.30,0.38,-0.30,-39.00,29.00,-55.0021848.00,-9.62,-1.72,-3.93,0.30,0.38,-0.30,-39.00,29.00,-55.0021926.00,-8.94,-2.78,-3.24,0.30,0.44,0.01,-36.00,35.00,-51.0022004.00,-9.08,-2.88,-3.34,-0.22,0.01,0.06,-36.00,35.00,-51.0022083.00,-9.10,-2.56,-3.31,-0.00,0.01,0.04,-37.00,33.00,-53.0022172.00,-9.04,-2.97,-3.17,0.07,0.00,-0.04,-37.00,33.00,-53.0022183.00,-9.02,-3.09,-3.27,0.01,0.03,-0.00,-36.00,31.00,-51.0022195.00,-9.02,-3.09,-3.27,0.01,0.03,-0.00,-36.00,31.00,-51.0022206.00,-9.09,-2.65,-3.51,-0.03,0.04,0.04,-36.00,31.00,-51.0022220.00,-9.09,-2.65,-3.51,-0.03,0.04,0.04,-36.00,31.00,-51.0022230.00,-9.09,-2.61,-3.45,-0.02,0.03,0.04,-36.00,31.00,-51.0022242.00,-9.12,-2.45,-3.51,-0.03,0.02,0.01,-36.00,31.00,-51.0022254.00,-9.12,-2.45,-3.51,-0.03,0.02,0.01,-36.00,31.00,-51.0022267.00,-9.07,-2.78,-3.30,-0.00,0.01,-0.03,-36.00,31.00,-51.0022279.00,-9.07,-2.78,-3.30,-0.00,0.01,-0.03,-36.00,31.00,-51.0022289.00,-9.04,-3.02,-3.27,0.02,0.02,-0.02,-36.00,31.00,-51.0022301.00,-9.04,-3.02,-3.27,0.02,0.02,-0.02,-36.00,31.00,-51.0022314.00,-9.07,-2.74,-3.46,0.01,0.04,0.01,-37.00,33.00,-51.0022325.00,-9.08,-2.62,-3.46,-0.00,0.03,0.01,-37.00,33.00,-51.0022337.00,-9.08,-2.62,-3.46,-0.00,0.03,0.01,-37.00,33.00,-51.0022349.00,-9.08,-2.62,-3.41,0.00,0.02,-0.02,-37.00,33.00,-51.0022362.00,-9.03,-2.96,-3.26,0.00,0.01,-0.04,-37.00,33.00,-51.0022374.00,-9.03,-2.96,-3.26,0.00,0.01,-0.04,-37.00,33.00,-51.0022386.00,-9.03,-2.91,-3.42,-0.01,0.03,-0.02,-37.00,33.00,-51.0022398.00,-9.03,-2.91,-3.42,-0.01,0.03,-0.02,-37.00,33.00,-51.0022411.00,-9.06,-2.61,-3.82,-0.03,0.02,-0.00,-37.00,33.00,-51.0022423.00,-9.09,-2.46,-3.71,-0.01,-0.04,-0.03,-37.00,33.00,-50.0022435.00,-9.09,-2.46,-3.71,-0.01,-0.04,-0.03,-37.00,33.00,-50.0022446.00,-9.22,-2.45,-3.36,0.05,-0.08,-0.08,-37.00,33.00,-50.0022459.00,-9.22,-2.45,-3.36,0.05,-0.08,-0.08,-37.00,33.00,-50.0022471.00,-9.49,-3.23,-3.30,0.03,-0.12,-0.09,-37.00,33.00,-50.0022482.00,-8.90,-6.97,-5.48,-0.14,-0.26,0.27,-37.00,33.00,-50.0022494.00,-8.90,-6.97,-5.48,-0.14,-0.26,0.27,-37.00,33.00,-50.0022507.00,-9.23,0.04,-2.91,-0.66,-0.66,1.11,-37.00,33.00,-50.0022519.00,-9.23,0.04,-2.91,-0.66,-0.66,1.11,-37.00,33.00,-50.0022531.00,-10.29,-1.27,-3.41,-0.54,-0.82,0.92,-37.00,33.00,-50.0022542.00,-9.76,-3.92,-3.57,-0.62,-1.30,0.87,-39.00,31.00,-53.0022555.00,-9.76,-3.92,-3.57,-0.62,-1.30,0.87,-39.00,31.00,-53.0022566.00,-11.34,4.41,0.14,-1.20,-1.48,0.97,-39.00,31.00,-53.0022578.00,-11.34,4.41,0.14,-1.20,-1.48,0.97,-39.00,31.00,-53.0022590.00,-8.58,-5.50,-0.82,-0.47,-0.85,0.34,-39.00,31.00,-53.0022603.00,-9.05,-1.96,-2.59,-0.63,-0.47,0.69,-39.00,31.00,-53.0022615.00,-9.05,-1.96,-2.59,-0.63,-0.47,0.69,-39.00,31.00,-53.0022626.00,-9.65,0.40,-3.56,-0.39,-0.08,0.48,-39.00,31.00,-53.0022640.00,-9.65,0.40,-3.56,-0.39,-0.08,0.48,-39.00,31.00,-53.0022652.00,-9.68,-0.22,-4.19,-0.07,-0.01,0.17,-39.00,31.00,-53.0022663.00,-9.69,-1.02,-2.73,0.14,-0.19,-0.07,-39.00,31.00,-53.0022675.00,-9.69,-1.02,-2.73,0.14,-0.19,-0.07,-39.00,31.00,-53.0022688.00,-9.59,-2.14,-1.78,0.21,-0.22,-0.16,-39.00,24.00,-57.0022700.00,-9.59,-2.14,-1.78,0.21,-0.22,-0.16,-39.00,24.00,-57.0022712.00,-9.54,-2.66,-1.25,0.16,-0.13,-0.09,-39.00,24.00,-57.0022723.00,-9.46,-3.14,-1.29,0.13,0.02,0.07,-39.00,24.00,-57.0022736.00,-9.46,-3.14,-1.29,0.13,0.02,0.07,-39.00,24.00,-57.0022748.00,-9.50,-3.89,-0.54,0.25,0.25,0.34,-39.00,24.00,-57.0022759.00,-9.50,-3.89,-0.54,0.25,0.25,0.34,-39.00,24.00,-57.0022771.00,-10.10,-2.18,2.68,0.91,0.85,0.70,-39.00,24.00,-57.0022785.00,-19.30,-5.72,7.05,1.36,2.13,0.78,-39.00,24.00,-57.0022796.00,-19.30,-5.72,7.05,1.36,2.13,0.78,-39.00,24.00,-57.0022808.00,-10.58,-4.72,4.18,-0.96,3.51,0.93,-37.00,21.00,-55.0022819.00,-10.58,-4.72,4.18,-0.96,3.51,0.93,-37.00,21.00,-55.0022833.00,-3.95,3.12,-12.35,-2.07,4.15,1.14,-37.00,21.00,-55.0022845.00,-6.14,3.78,-8.98,-1.08,1.44,-0.10,-37.00,21.00,-55.0022857.00,-6.14,3.78,-8.98,-1.08,1.44,-0.10,-37.00,21.00,-55.0022868.00,-5.13,-3.61,-2.92,-0.32,-0.13,-1.23,-37.00,21.00,-55.0022882.00,-5.13,-3.61,-2.92,-0.32,-0.13,-1.23,-37.00,21.00,-55.0022893.00,-3.90,-1.91,-6.95,-0.27,0.25,-0.23,-37.00,21.00,-55.0022904.00,-5.14,1.49,-7.68,-0.26,-0.08,0.57,-37.00,21.00,-55.0022915.00,-5.14,1.49,-7.68,-0.26,-0.08,0.57,-37.00,21.00,-55.0022929.00,-7.43,0.78,-5.00,-0.26,-0.48,0.53,-40.00,19.00,-42.0022941.00,-7.43,0.78,-5.00,-0.26,-0.48,0.53,-40.00,19.00,-42.0022952.00,-10.65,0.17,-7.17,-0.31,-0.08,0.71,-40.00,19.00,-42.0022964.00,-12.92,3.37,-7.55,-0.11,0.28,1.03,-40.00,19.00,-42.0022977.00,-12.92,3.37,-7.55,-0.11,0.28,1.03,-40.00,19.00,-42.0022988.00,-7.03,1.23,-2.93,-0.08,0.17,0.29,-40.00,19.00,-42.0023000.00,-7.03,1.23,-2.93,-0.08,0.17,0.29,-40.00,19.00,-42.0023012.00,-8.44,-2.71,-6.89,0.25,0.29,0.08,-40.00,19.00,-42.0023025.00,-11.00,0.55,-2.36,0.09,-0.23,0.48,-40.00,19.00,-42.0023037.00,-11.00,0.55,-2.36,0.09,-0.23,0.48,-40.00,19.00,-42.0023048.00,-9.26,0.07,-3.54,0.05,0.10,0.18,-36.00,15.00,-40.0023060.00,-9.26,0.07,-3.54,0.05,0.10,0.18,-36.00,15.00,-40.0023074.00,-8.97,-0.93,-4.78,0.15,0.28,0.08,-36.00,15.00,-40.0023085.00,-9.15,-0.53,-4.68,0.08,0.17,0.23,-36.00,15.00,-40.0023097.00,-9.15,-0.53,-4.68,0.08,0.17,0.23,-36.00,15.00,-40.0023108.00,-9.48,0.03,-4.30,0.00,0.06,0.21,-36.00,15.00,-40.0023120.00,-9.48,0.03,-4.30,0.00,0.06,0.21,-36.00,15.00,-40.0023133.00,-8.98,-0.52,-4.38,-0.03,0.08,0.06,-36.00,15.00,-40.0023145.00,-8.22,-0.34,-5.32,-0.04,0.13,0.08,-36.00,15.00,-40.0023156.00,-8.22,-0.34,-5.32,-0.04,0.13,0.08,-36.00,15.00,-40.0023168.00,-8.20,0.31,-5.61,0.03,0.04,0.15,-36.00,15.00,-40.0023181.00,-8.20,0.31,-5.61,0.03,0.04,0.15,-36.00,15.00,-40.0023192.00,-8.91,0.11,-5.73,0.19,-0.10,0.14,-39.00,12.00,-42.0023205.00,-9.46,0.20,-4.29,0.17,-0.30,0.06,-39.00,12.00,-42.0023217.00,-9.46,0.20,-4.29,0.17,-0.30,0.06,-39.00,12.00,-42.0023230.00,-9.34,-0.21,-4.22,0.09,-0.29,-0.06,-39.00,12.00,-42.0023242.00,-9.34,-0.21,-4.22,0.09,-0.29,-0.06,-39.00,12.00,-42.0023253.00,-8.89,-0.37,-4.36,0.11,-0.22,-0.07,-39.00,12.00,-42.0023265.00,-8.78,-0.18,-4.85,0.21,-0.18,0.03,-39.00,12.00,-42.0023278.00,-8.78,-0.18,-4.85,0.21,-0.18,0.03,-39.00,12.00,-42.0023290.00,-9.01,-0.20,-4.81,0.25,-0.22,0.07,-39.00,12.00,-42.0023302.00,-9.01,-0.20,-4.81,0.25,-0.22,0.07,-39.00,12.00,-42.0023314.00,-9.13,-0.34,-4.47,0.23,-0.29,0.05,-39.00,14.00,-40.0023327.00,-9.31,-0.23,-4.05,0.23,-0.27,0.07,-39.00,14.00,-40.0023339.00,-9.31,-0.23,-4.05,0.23,-0.27,0.07,-39.00,14.00,-40.0023350.00,-9.12,-0.77,-4.05,0.22,-0.21,0.06,-39.00,14.00,-40.0023362.00,-9.12,-0.77,-4.05,0.22,-0.21,0.06,-39.00,14.00,-40.0023376.00,-9.34,-0.52,-3.93,0.19,-0.16,0.14,-39.00,14.00,-40.0023388.00,-9.56,-0.42,-3.54,0.15,-0.08,0.15,-39.00,14.00,-40.0023400.00,-9.56,-0.42,-3.54,0.15,-0.08,0.15,-39.00,14.00,-40.0023412.00,-9.37,-0.27,-4.03,0.09,0.04,0.11,-39.00,14.00,-40.0023425.00,-8.96,0.06,-4.83,0.12,0.07,0.12,-40.00,12.00,-42.0023437.00,-8.96,0.06,-4.83,0.12,0.07,0.12,-40.00,12.00,-42.0023448.00,-8.91,0.07,-4.83,0.22,-0.01,0.13,-40.00,12.00,-42.0023460.00,-8.91,0.07,-4.83,0.22,-0.01,0.13,-40.00,12.00,-42.0023473.00,-9.21,-0.50,-4.23,0.23,-0.12,0.07,-40.00,12.00,-42.0023485.00,-9.32,-0.34,-3.84,0.10,-0.19,0.01,-40.00,12.00,-42.0023496.00,-9.32,-0.34,-3.84,0.10,-0.19,0.01,-40.00,12.00,-42.0023508.00,-9.36,-0.01,-4.11,0.06,-0.15,-0.08,-40.00,12.00,-42.0023521.00,-9.36,-0.01,-4.11,0.06,-0.15,-0.08,-40.00,12.00,-42.0023533.00,-9.37,-0.55,-3.80,0.12,-0.10,-0.10,-40.00,12.00,-42.0023545.00,-9.40,-0.62,-3.69,0.20,0.02,0.00,-40.00,12.00,-42.0023556.00,-9.40,-0.62,-3.69,0.20,0.02,0.00,-40.00,12.00,-42.0023569.00,-9.44,-0.87,-3.64,0.15,0.08,0.06,-39.00,14.00,-42.0023581.00,-9.44,-0.87,-3.64,0.15,0.08,0.06,-39.00,14.00,-42.0023592.00,-9.46,-0.39,-3.87,0.03,0.12,0.08,-39.00,14.00,-42.0023604.00,-9.18,-0.30,-4.17,-0.02,0.16,0.03,-39.00,14.00,-42.0023608.00,-9.18,-0.30,-4.17,-0.02,0.16,0.03,-39.00,14.00,-42.0023688.00,-9.02,-0.79,-4.36,0.28,-0.08,0.01,-40.00,14.00,-42.0023764.00,-9.75,-1.36,-2.41,0.25,-0.87,-0.33,-40.00,14.00,-42.0023843.00,-9.73,0.99,-4.76,-0.19,-0.26,-0.17,-39.00,15.00,-48.0023931.00,-8.87,-0.93,-2.27,-0.55,-0.26,-1.02,-39.00,21.00,-50.0023943.00,-8.87,-0.93,-2.27,-0.55,-0.26,-1.02,-39.00,21.00,-50.0023954.00,-8.19,-1.06,-4.08,-0.09,0.04,-0.95,-39.00,21.00,-50.0023966.00,-8.82,-5.00,-5.49,0.19,-0.05,-0.79,-39.00,21.00,-50.0023980.00,-8.82,-5.00,-5.49,0.19,-0.05,-0.79,-39.00,21.00,-50.0023992.00,-9.73,-0.67,-1.30,0.23,-0.17,-0.22,-39.00,21.00,-50.0024004.00,-9.31,-2.76,-2.83,0.21,0.07,-0.19,-39.00,21.00,-50.0024017.00,-9.31,-2.76,-2.83,0.21,0.07,-0.19,-39.00,21.00,-50.0024029.00,-9.36,-1.66,-3.96,-0.00,0.07,-0.04,-39.00,21.00,-50.0024041.00,-9.36,-1.66,-3.96,-0.00,0.07,-0.04,-39.00,21.00,-50.0024052.00,-9.42,-1.58,-3.40,-0.00,-0.04,-0.06,-39.00,21.00,-50.0024065.00,-9.40,-2.05,-2.62,-0.01,-0.09,-0.11,-39.00,22.00,-53.0024076.00,-9.40,-2.05,-2.62,-0.01,-0.09,-0.11,-39.00,22.00,-53.0024088.00,-9.28,-3.60,-2.00,-0.08,-0.00,-0.06,-39.00,22.00,-53.0024099.00,-9.28,-3.60,-2.00,-0.08,-0.00,-0.06,-39.00,22.00,-53.0024113.00,-9.26,-3.73,-1.80,-0.19,0.23,0.22,-39.00,22.00,-53.0024125.00,-9.26,-2.65,-2.43,-0.06,0.54,0.56,-39.00,22.00,-53.0024136.00,-9.26,-2.65,-2.43,-0.06,0.54,0.56,-39.00,22.00,-53.0024147.00,-10.92,0.24,-1.95,0.01,0.77,0.69,-39.00,22.00,-53.0024161.00,-10.92,0.24,-1.95,0.01,0.77,0.69,-39.00,22.00,-53.0024172.00,-10.15,-1.57,-2.98,-0.14,1.09,0.22,-39.00,22.00,-53.0024184.00,-10.15,-1.57,-2.98,-0.14,1.09,0.22,-39.00,22.00,-53.0024195.00,-8.28,-2.27,-4.39,-0.40,1.05,0.02,-36.00,22.00,-48.0024208.00,-8.22,-0.95,-5.71,-0.48,0.82,0.15,-36.00,22.00,-48.0024220.00,-8.22,-0.95,-5.71,-0.48,0.82,0.15,-36.00,22.00,-48.0024232.00,-7.56,0.07,-7.25,-0.37,0.48,0.15,-36.00,22.00,-48.0024243.00,-7.56,0.07,-7.25,-0.37,0.48,0.15,-36.00,22.00,-48.0024256.00,-8.70,0.06,-6.01,-0.02,-0.02,0.05,-36.00,22.00,-48.0024268.00,-9.45,-1.16,-3.91,0.17,-0.31,-0.14,-36.00,22.00,-48.0024279.00,-9.45,-1.16,-3.91,0.17,-0.31,-0.14,-36.00,22.00,-48.0024290.00,-9.43,-2.53,-2.80,0.17,-0.28,-0.20,-36.00,22.00,-48.0024304.00,-9.43,-2.53,-2.80,0.17,-0.28,-0.20,-36.00,22.00,-48.0024315.00,-9.48,-2.48,-3.09,0.04,-0.13,-0.03,-37.00,26.00,-48.0024327.00,-9.27,-1.55,-3.74,-0.05,-0.01,0.11,-37.00,26.00,-48.0024338.00,-9.27,-1.55,-3.74,-0.05,-0.01,0.11,-37.00,26.00,-48.0024351.00,-9.27,-1.21,-3.89,-0.05,0.02,0.07,-37.00,26.00,-48.0024362.00,-9.27,-1.21,-3.89,-0.05,0.02,0.07,-37.00,26.00,-48.0024373.00,-9.00,-1.62,-4.18,-0.02,0.02,0.01,-37.00,26.00,-48.0024385.00,-9.18,-1.51,-3.84,0.03,-0.03,0.04,-37.00,26.00,-48.0024398.00,-9.18,-1.51,-3.84,0.03,-0.03,0.04,-37.00,26.00,-48.0024410.00,-9.23,-1.55,-4.01,0.03,-0.05,0.04,-37.00,26.00,-48.0024421.00,-9.23,-1.55,-4.01,0.03,-0.05,0.04,-37.00,26.00,-48.0024433.00,-9.15,-1.42,-3.92,0.01,-0.05,0.02,-42.00,22.00,-48.0024446.00,-9.32,-1.83,-3.59,0.00,-0.02,-0.01,-42.00,22.00,-48.0024457.00,-9.32,-1.83,-3.59,0.00,-0.02,-0.01,-42.00,22.00,-48.0024468.00,-9.08,-1.77,-3.83,-0.01,0.04,0.04,-42.00,22.00,-48.0024480.00,-9.08,-1.77,-3.83,-0.01,0.04,0.04,-42.00,22.00,-48.0024493.00,-8.95,-1.55,-4.31,0.03,0.04,0.11,-42.00,22.00,-48.0024504.00,-8.95,-1.55,-4.31,0.03,0.04,0.11,-42.00,22.00,-48.0024516.00,-8.98,-1.16,-4.35,0.04,-0.03,0.12,-42.00,22.00,-48.0024527.00,-8.81,-0.82,-4.65,0.03,-0.16,0.01,-42.00,22.00,-48.0024541.00,-8.81,-0.82,-4.65,0.03,-0.16,0.01,-42.00,22.00,-48.0024553.00,-9.32,-1.15,-4.08,0.12,-0.32,-0.05,-42.00,22.00,-48.0024565.00,-9.33,-2.08,-3.23,0.06,-0.27,-0.15,-39.00,22.00,-48.0024577.00,-9.33,-2.08,-3.23,0.06,-0.27,-0.15,-39.00,22.00,-48.0024582.00,-9.33,-2.08,-3.23,0.06,-0.27,-0.15,-39.00,22.00,-48.0024660.00,-9.05,-3.57,-2.38,0.27,-0.82,-0.82,-39.00,22.00,-48.0024737.00,-9.44,-1.02,-3.97,-0.47,-0.71,0.27,-37.00,31.00,-53.0024814.00,-9.49,-2.27,-2.20,-0.57,-0.70,0.47,-40.00,29.00,-57.0024903.00,-9.76,-1.18,-0.95,-0.64,-0.12,0.18,-40.00,29.00,-57.0024914.00,-9.80,-0.85,-1.95,-0.60,0.08,0.14,-40.00,29.00,-57.0024926.00,-9.86,-0.49,-2.56,-0.44,0.13,0.07,-40.00,29.00,-57.0024938.00,-9.86,-0.49,-2.56,-0.44,0.13,0.07,-40.00,29.00,-57.0024951.00,-9.76,-1.00,-2.27,-0.26,0.10,-0.03,-39.00,26.00,-59.0024962.00,-9.76,-1.00,-2.27,-0.26,0.10,-0.03,-39.00,26.00,-59.0024973.00,-9.82,-0.60,-1.98,-0.16,0.11,-0.08,-39.00,26.00,-59.0024985.00,-9.82,-0.60,-1.98,-0.16,0.11,-0.08,-39.00,26.00,-59.0024998.00,-9.75,-0.98,-1.21,0.05,0.19,-0.18,-39.00,26.00,-59.0025010.00,-9.79,-0.62,-1.77,0.22,0.40,-0.29,-39.00,26.00,-59.0025022.00,-9.79,-0.62,-1.77,0.22,0.40,-0.29,-39.00,26.00,-59.0025033.00,-9.77,-0.84,-1.81,0.42,0.62,-0.41,-39.00,26.00,-59.0025046.00,-9.77,1.64,-4.29,0.31,0.97,-0.60,-39.00,26.00,-59.0025058.00,-9.77,1.64,-4.29,0.31,0.97,-0.60,-39.00,26.00,-59.0025070.00,-8.44,-3.12,-5.55,0.51,0.98,-0.92,-36.00,28.00,-57.0025081.00,-8.44,-3.12,-5.55,0.51,0.98,-0.92,-36.00,28.00,-57.0025094.00,-9.40,-2.01,-1.96,0.58,0.61,-0.66,-36.00,28.00,-57.0025106.00,-9.09,-3.52,-4.35,0.63,0.81,-0.41,-36.00,28.00,-57.0025117.00,-9.09,-3.52,-4.35,0.63,0.81,-0.41,-36.00,28.00,-57.0025129.00,-9.92,-4.08,-3.09,0.35,0.52,-0.08,-36.00,28.00,-57.0025142.00,-9.92,-4.08,-3.09,0.35,0.52,-0.08,-36.00,28.00,-57.0025154.00,-9.52,-3.08,-1.24,-0.16,0.12,0.15,-36.00,28.00,-57.0025166.00,-9.52,-1.29,-3.39,-0.31,0.16,0.27,-36.00,28.00,-57.0025177.00,-9.52,-1.29,-3.39,-0.31,0.16,0.27,-36.00,28.00,-57.0025191.00,-9.56,-0.38,-4.40,-0.10,0.11,0.15,-36.00,31.00,-55.0025203.00,-9.56,-0.38,-4.40,-0.10,0.11,0.15,-36.00,31.00,-55.0025214.00,-9.45,-1.29,-3.49,0.14,-0.04,-0.11,-36.00,31.00,-55.0025225.00,-9.26,-2.79,-2.55,0.19,-0.08,-0.21,-36.00,31.00,-55.0025239.00,-9.26,-2.79,-2.55,0.19,-0.08,-0.21,-36.00,31.00,-55.0025250.00,-9.23,-3.08,-2.47,0.04,-0.02,-0.10,-36.00,31.00,-55.0025262.00,-9.23,-3.08,-2.47,0.04,-0.02,-0.10,-36.00,31.00,-55.0025274.00,-9.30,-2.48,-3.00,-0.06,0.05,0.07,-36.00,31.00,-55.0025287.00,-9.42,-1.73,-3.46,-0.02,0.07,0.14,-36.00,31.00,-55.0025298.00,-9.42,-1.73,-3.46,-0.02,0.07,0.14,-36.00,31.00,-55.0025310.00,-9.94,-0.12,-3.86,0.25,0.07,0.08,-37.00,29.00,-53.0025322.00,-9.94,-0.12,-3.86,0.25,0.07,0.08,-37.00,29.00,-53.0025335.00,-11.64,-4.24,-2.34,1.15,0.34,0.02,-37.00,29.00,-53.0025347.00,-15.18,-3.87,7.33,0.69,0.66,0.41,-37.00,29.00,-53.0025358.00,-15.18,-3.87,7.33,0.69,0.66,0.41,-37.00,29.00,-53.0025370.00,-4.36,-1.47,-2.99,-0.87,2.07,0.05,-37.00,29.00,-53.0025383.00,-4.36,-1.47,-2.99,-0.87,2.07,0.05,-37.00,29.00,-53.0025394.00,-5.17,-4.50,-10.16,-0.83,1.63,-0.15,-37.00,29.00,-53.0025406.00,-7.07,0.98,-6.90,-0.54,0.41,0.66,-37.00,29.00,-53.0025417.00,-7.07,0.98,-6.90,-0.54,0.41,0.66,-37.00,29.00,-53.0025431.00,-6.96,-0.37,-8.74,-0.07,0.20,0.51,-37.00,29.00,-53.0025442.00,-6.96,-0.37,-8.74,-0.07,0.20,0.51,-37.00,29.00,-53.0025454.00,-9.25,-0.25,-4.82,0.28,-0.32,0.41,-37.00,24.00,-46.0025466.00,-9.09,-1.73,-4.05,0.35,-0.41,0.12,-37.00,24.00,-46.0025479.00,-9.09,-1.73,-4.05,0.35,-0.41,0.12,-37.00,24.00,-46.0025491.00,-11.06,-1.60,-1.80,0.32,-0.47,0.01,-37.00,24.00,-46.0025503.00,-11.06,-1.60,-1.80,0.32,-0.47,0.01,-37.00,24.00,-46.0025515.00,-9.71,-2.64,-1.85,0.18,-0.13,-0.10,-37.00,24.00,-46.0025528.00,-9.02,-2.24,-3.19,0.06,0.12,0.01,-37.00,24.00,-46.0025540.00,-9.02,-2.24,-3.19,0.06,0.12,0.01,-37.00,24.00,-46.0025552.00,-9.30,-1.50,-3.65,0.01,0.13,0.07,-37.00,24.00,-46.0025563.00,-9.30,-1.50,-3.65,0.01,0.13,0.07,-37.00,24.00,-46.0025576.00,-8.88,-1.42,-4.57,0.01,0.14,0.01,-37.00,28.00,-46.0025588.00,-9.16,-1.21,-4.37,0.09,0.03,-0.06,-37.00,28.00,-46.0025600.00,-9.16,-1.21,-4.37,0.09,0.03,-0.06,-37.00,28.00,-46.0025611.00,-9.05,-1.97,-3.95,0.14,-0.06,-0.15,-37.00,28.00,-46.0025625.00,-9.05,-1.97,-3.95,0.14,-0.06,-0.15,-37.00,28.00,-46.0025636.00,-9.04,-2.34,-3.73,0.11,-0.11,-0.09,-37.00,28.00,-46.0025648.00,-9.63,-1.93,-3.38,0.08,-0.10,0.04,-37.00,28.00,-46.0025659.00,-9.63,-1.93,-3.38,0.08,-0.10,0.04,-37.00,28.00,-46.0025673.00,-9.70,-1.81,-3.08,0.03,-0.01,0.05,-37.00,28.00,-46.0025684.00,-9.70,-1.81,-3.08,0.03,-0.01,0.05,-37.00,28.00,-46.0025696.00,-9.17,-1.99,-3.57,-0.05,0.09,0.00,-37.00,28.00,-46.0025708.00,-8.85,-1.89,-4.08,-0.07,0.07,0.02,-37.00,28.00,-46.0025721.00,-8.85,-1.89,-4.08,-0.07,0.07,0.02,-37.00,28.00,-46.0025732.00,-9.10,-1.63,-4.12,-0.02,-0.01,0.04,-37.00,28.00,-46.0025743.00,-9.10,-1.63,-4.12,-0.02,-0.01,0.04,-37.00,28.00,-46.0025755.00,-9.15,-1.63,-4.05,0.04,-0.04,0.05,-37.00,28.00,-46.0025768.00,-9.43,-1.73,-3.52,0.06,-0.04,0.06,-37.00,28.00,-46.0025780.00,-9.43,-1.73,-3.52,0.06,-0.04,0.06,-37.00,28.00,-46.0025791.00,-9.21,-2.06,-3.30,0.03,0.01,0.02,-37.00,28.00,-46.0025803.00,-9.21,-2.06,-3.30,0.03,0.01,0.02,-37.00,28.00,-46.0025816.00,-9.05,-2.21,-3.73,-0.01,0.01,0.03,-39.00,26.00,-48.0025828.00,-9.04,-1.57,-3.97,-0.01,-0.03,0.08,-39.00,26.00,-48.0025839.00,-9.04,-1.57,-3.97,-0.01,-0.03,0.08,-39.00,26.00,-48.0025851.00,-8.83,-1.31,-4.52,0.06,-0.08,0.06,-39.00,26.00,-48.0025865.00,-8.83,-1.31,-4.52,0.06,-0.08,0.06,-39.00,26.00,-48.0025877.00,-9.65,-1.41,-3.95,0.13,-0.21,0.01,-39.00,26.00,-48.0025888.00,-10.11,-1.59,-2.31,0.10,-0.22,-0.06,-39.00,26.00,-48.0025900.00,-10.11,-1.59,-2.31,0.10,-0.22,-0.06,-39.00,26.00,-48.0025913.00,-9.28,-2.62,-3.11,0.03,-0.06,-0.10,-39.00,26.00,-48.0025925.00,-9.28,-2.62,-3.11,0.03,-0.06,-0.10,-39.00,26.00,-48.0025937.00,-9.25,-2.11,-3.34,-0.04,-0.01,0.02,-39.00,26.00,-48.0025949.00,-9.12,-1.64,-3.97,-0.10,0.01,0.10,-39.00,28.00,-50.0025963.00,-9.12,-1.64,-3.97,-0.10,0.01,0.10,-39.00,28.00,-50.0025975.00,-8.86,-1.80,-5.84,-0.11,-0.15,0.12,-39.00,28.00,-50.0025986.00,-8.86,-1.80,-5.84,-0.11,-0.15,0.12,-39.00,28.00,-50.0025998.00,-9.39,-1.26,-3.19,-0.12,-0.38,-0.05,-39.00,28.00,-50.0026011.00,-9.32,-2.40,-2.95,-0.07,-0.20,-0.14,-39.00,28.00,-50.0026023.00,-9.32,-2.40,-2.95,-0.07,-0.20,-0.14,-39.00,28.00,-50.0026034.00,-9.17,-2.88,-2.97,-0.08,-0.15,0.02,-39.00,28.00,-50.0026046.00,-9.42,-1.31,-3.39,-0.19,-0.08,0.16,-39.00,28.00,-50.0026060.00,-9.42,-1.31,-3.39,-0.19,-0.08,0.16,-39.00,28.00,-50.0026072.00,-9.36,-1.47,-4.48,-0.15,-0.10,0.08,-37.00,26.00,-50.0026084.00,-9.36,-1.47,-4.48,-0.15,-0.10,0.08,-37.00,26.00,-50.0026096.00,-9.43,-1.75,-4.15,-0.08,-0.26,0.03,-37.00,26.00,-50.0026110.00,-9.69,-1.71,-3.56,-0.14,-0.41,0.04,-37.00,26.00,-50.0026122.00,-9.69,-1.71,-3.56,-0.14,-0.41,0.04,-37.00,26.00,-50.0026133.00,-9.73,-2.55,-3.43,-0.31,-0.61,0.13,-37.00,26.00,-50.0026145.00,-9.73,-2.55,-3.43,-0.31,-0.61,0.13,-37.00,26.00,-50.0026159.00,-10.24,-2.02,-1.22,-0.73,-1.05,0.36,-37.00,26.00,-50.0026171.00,-11.08,1.52,-0.71,-1.20,-1.32,0.37,-37.00,26.00,-50.0026182.00,-11.08,1.52,-0.71,-1.20,-1.32,0.37,-37.00,26.00,-50.0026194.00,-8.47,-4.29,-2.11,-1.03,-1.10,0.25,-40.00,28.00,-59.0026207.00,-9.65,-0.05,-0.72,-1.25,-1.04,0.49,-40.00,28.00,-59.0026219.00,-9.65,-0.05,-0.72,-1.25,-1.04,0.49,-40.00,28.00,-59.0026230.00,-9.38,-1.15,-4.06,-1.17,-0.47,0.44,-40.00,28.00,-59.0026244.00,-9.38,-1.15,-4.06,-1.17,-0.47,0.44,-40.00,28.00,-59.0026255.00,-9.97,1.41,-1.79,-0.94,-0.72,0.48,-40.00,28.00,-59.0026267.00,-9.64,-0.20,-3.68,-0.54,-0.35,0.05,-40.00,28.00,-59.0026279.00,-9.64,-0.20,-3.68,-0.54,-0.35,0.05,-40.00,28.00,-59.0026292.00,-9.87,0.46,-3.53,-0.23,-0.26,-0.20,-40.00,28.00,-59.0026304.00,-9.87,0.46,-3.53,-0.23,-0.26,-0.20,-40.00,28.00,-59.0026316.00,-9.83,-0.54,-2.25,0.06,-0.41,-0.43,-37.00,24.00,-63.0026328.00,-9.70,-1.46,-1.41,0.20,-0.44,-0.52,-37.00,24.00,-63.0026332.00,-9.70,-1.46,-1.41,0.20,-0.44,-0.52,-37.00,24.00,-63.0026410.00,-9.80,-1.07,-2.09,-0.12,0.03,0.20,-37.00,24.00,-63.0026488.00,-9.69,-2.34,-0.44,0.32,-0.22,-0.33,-39.00,24.00,-65.0026565.00,-9.60,-2.39,-1.11,0.18,0.26,0.46,-39.00,24.00,-65.0026655.00,-9.58,-2.47,-1.39,0.46,-0.17,-0.49,-39.00,28.00,-65.0026666.00,-9.58,-2.47,-1.39,0.46,-0.17,-0.49,-39.00,28.00,-65.0026678.00,-9.69,-2.07,-0.11,0.20,-0.13,-0.34,-39.00,28.00,-65.0026689.00,-9.79,-1.53,-1.95,0.06,0.09,-0.19,-37.00,24.00,-61.0026702.00,-9.79,-1.53,-1.95,0.06,0.09,-0.19,-37.00,24.00,-61.0026714.00,-9.69,-1.30,-1.91,0.07,0.16,-0.13,-37.00,24.00,-61.0026725.00,-9.69,-1.30,-1.91,0.07,0.16,-0.13,-37.00,24.00,-61.0026737.00,-9.72,-1.07,-2.84,0.13,0.24,-0.11,-37.00,24.00,-61.0026750.00,-9.61,-2.14,-2.43,0.30,0.16,-0.12,-37.00,24.00,-61.0026762.00,-9.61,-2.14,-2.43,0.30,0.16,-0.12,-37.00,24.00,-61.0026774.00,-9.62,-3.20,-1.24,0.28,0.12,0.01,-37.00,24.00,-61.0026786.00,-9.62,-3.20,-1.24,0.28,0.12,0.01,-37.00,24.00,-61.0026799.00,-9.74,-2.88,0.57,0.49,0.34,0.30,-37.00,24.00,-61.0026811.00,-14.76,1.38,5.30,1.32,1.29,0.55,-37.00,24.00,-61.0026823.00,-14.76,1.38,5.30,1.32,1.29,0.55,-37.00,24.00,-61.0026835.00,-20.41,-7.72,16.08,1.20,2.88,-0.50,-40.00,24.00,-59.0026848.00,-5.88,-8.69,-1.40,-2.02,5.63,-0.42,-40.00,24.00,-59.0026860.00,-5.88,-8.69,-1.40,-2.02,5.63,-0.42,-40.00,24.00,-59.0026871.00,-3.83,1.92,-17.54,-2.65,5.09,0.99,-40.00,24.00,-59.0026882.00,-3.83,1.92,-17.54,-2.65,5.09,0.99,-40.00,24.00,-59.0026895.00,-5.21,6.86,-9.39,-1.83,1.52,0.19,-40.00,24.00,-59.0026907.00,-5.21,6.86,-9.39,-1.83,1.52,0.19,-40.00,24.00,-59.0026918.00,-2.37,0.25,-5.85,-0.55,0.24,-1.41,-40.00,24.00,-59.0026930.00,-0.23,-4.11,-9.46,-0.20,-0.09,-0.95,-40.00,24.00,-59.0026942.00,-0.23,-4.11,-9.46,-0.20,-0.09,-0.95,-40.00,24.00,-59.0026954.00,-4.03,1.64,-6.36,-0.08,-0.81,0.44,-36.00,21.00,-40.0026966.00,-4.03,1.64,-6.36,-0.08,-0.81,0.44,-36.00,21.00,-40.0026978.00,-7.03,3.85,-5.96,0.19,-0.89,0.69,-36.00,21.00,-40.0026991.00,-7.44,-0.20,-6.35,0.55,-0.73,0.36,-36.00,21.00,-40.0027002.00,-7.44,-0.20,-6.35,0.55,-0.73,0.36,-36.00,21.00,-40.0027014.00,-8.03,-0.56,-6.46,0.79,-0.67,0.77,-36.00,21.00,-40.0027026.00,-8.03,-0.56,-6.46,0.79,-0.67,0.77,-36.00,21.00,-40.0027039.00,-9.08,-0.48,-4.67,0.69,-0.90,1.00,-36.00,21.00,-40.0027051.00,-9.81,-0.66,-3.42,0.59,-0.89,0.97,-36.00,21.00,-40.0027062.00,-9.81,-0.66,-3.42,0.59,-0.89,0.97,-36.00,21.00,-40.0027074.00,-13.15,-1.73,-6.48,0.53,-0.78,0.84,-37.00,17.00,-46.0027087.00,-11.99,-0.22,-1.13,0.48,-0.91,0.80,-37.00,17.00,-46.0027099.00,-11.99,-0.22,-1.13,0.48,-0.91,0.80,-37.00,17.00,-46.0027111.00,-8.68,-1.19,-2.66,0.12,-0.16,0.51,-37.00,17.00,-46.0027123.00,-8.68,-1.19,-2.66,0.12,-0.16,0.51,-37.00,17.00,-46.0027138.00,-10.41,-0.60,-3.78,0.17,0.03,0.62,-37.00,17.00,-46.0027150.00,-10.08,0.93,-2.47,0.13,-0.04,0.59,-37.00,17.00,-46.0027162.00,-10.08,0.93,-2.47,0.13,-0.04,0.59,-37.00,17.00,-46.0027174.00,-9.00,0.61,-5.32,0.26,0.28,0.41,-37.00,17.00,-46.0027188.00,-9.62,0.87,-3.76,0.48,0.15,0.33,-37.00,17.00,-46.0027199.00,-9.62,0.87,-3.76,0.48,0.15,0.33,-39.00,12.00,-44.0027211.00,-9.63,-0.43,-3.87,0.48,0.21,0.15,-39.00,12.00,-44.0027223.00,-9.63,-0.43,-3.87,0.48,0.21,0.15,-39.00,12.00,-44.0027236.00,-9.19,-0.55,-3.77,0.39,0.24,0.15,-39.00,12.00,-44.0027248.00,-9.19,-0.55,-3.77,0.39,0.24,0.15,-39.00,12.00,-44.0027259.00,-9.12,0.35,-4.55,0.41,0.33,0.24,-39.00,12.00,-44.0027271.00,-9.27,0.65,-4.62,0.52,0.34,0.18,-39.00,12.00,-44.0027275.00,-9.27,0.65,-4.62,0.52,0.34,0.18,-39.00,12.00,-44.0027353.00,-10.14,-0.94,-2.67,0.36,-0.53,-0.12,-39.00,15.00,-40.0027430.00,-8.87,0.06,-4.91,-0.10,0.00,0.21,-39.00,15.00,-40.0027508.00,-10.01,-0.06,-1.13,0.04,-1.02,-0.43,-37.00,12.00,-46.0027597.00,-9.52,-0.36,-3.86,-0.20,-0.11,-0.06,-40.00,17.00,-50.0027609.00,-9.51,-0.70,-3.42,-0.17,-0.20,-0.13,-40.00,17.00,-50.0027621.00,-9.51,-0.70,-3.42,-0.17,-0.20,-0.13,-40.00,17.00,-50.0027633.00,-9.54,-0.93,-2.81,-0.16,-0.21,-0.15,-40.00,17.00,-50.0027646.00,-9.54,-0.93,-2.81,-0.16,-0.21,-0.15,-40.00,17.00,-50.0027658.00,-9.50,-1.22,-2.78,-0.18,-0.14,-0.12,-40.00,17.00,-50.0027670.00,-9.52,-1.01,-3.16,-0.18,-0.07,-0.04,-40.00,17.00,-50.0027682.00,-9.52,-1.01,-3.16,-0.18,-0.07,-0.04,-40.00,17.00,-50.0027695.00,-9.60,-0.23,-3.54,-0.17,-0.06,-0.02,-37.00,17.00,-50.0027706.00,-9.60,-0.23,-3.54,-0.17,-0.06,-0.02,-37.00,17.00,-50.0027718.00,-9.58,-0.55,-3.23,-0.08,-0.11,-0.10,-37.00,17.00,-50.0027729.00,-9.52,-1.18,-2.84,-0.03,-0.12,-0.15,-37.00,17.00,-50.0027743.00,-9.52,-1.18,-2.84,-0.03,-0.12,-0.15,-37.00,17.00,-50.0027754.00,-9.49,-1.52,-2.54,-0.03,-0.07,-0.09,-37.00,17.00,