time,ax,ay,az,gx,gy,gz,mx,my,mz51.00,0.11,0.08,-10.23,0.00,-0.00,0.00,-29.87,-19.04,47.56103.00,0.06,0.10,-10.22,-0.00,-0.00,0.00,-30.40,-20.98,47.05155.00,0.15,0.14,-10.19,-0.00,-0.00,-0.00,-30.40,-20.98,47.05207.00,0.06,0.11,-10.19,-0.00,0.00,0.00,-30.40,-20.98,47.05259.00,0.11,0.13,-10.21,-0.00,-0.00,0.00,-30.05,-19.22,46.71311.00,0.12,0.13,-10.19,-0.00,0.00,0.00,-30.05,-19.22,46.71362.00,0.10,0.09,-10.23,-0.00,0.00,0.00,-30.40,-19.92,48.07414.00,0.13,0.13,-10.21,-0.00,-0.00,0.00,-30.40,-19.92,48.07466.00,0.11,0.12,-10.20,-0.00,0.00,0.00,-30.40,-20.27,47.39518.00,0.11,0.10,-10.19,-0.00,0.00,0.00,-30.40,-20.27,47.39570.00,0.11,0.11,-10.18,0.00,-0.00,-0.00,-30.40,-20.27,47.39622.00,0.14,0.07,-9.90,-0.00,-0.00,0.00,-29.69,-20.27,46.37838.00,0.15,0.12,-10.17,-0.00,0.00,0.00,-29.34,-20.98,47.39890.00,0.08,0.13,-10.20,-0.00,0.00,-0.00,-30.92,-19.75,48.58942.00,0.12,0.08,-10.17,-0.00,0.00,0.00,-30.92,-19.75,48.58994.00,0.09,0.16,-10.17,-0.00,0.00,0.00,-31.28,-19.39,47.901046.00,0.10,0.07,-10.16,-0.00,-0.00,0.00,-31.28,-19.39,47.901098.00,0.13,0.16,-10.22,-0.00,0.00,0.00,-29.69,-18.86,47.051150.00,0.13,0.10,-10.17,-0.00,0.00,-0.00,-29.69,-18.86,47.051202.00,0.08,0.10,-10.20,-0.00,-0.00,0.00,-29.69,-18.86,47.051254.00,0.11,0.18,-10.06,-0.00,0.00,0.00,-29.87,-19.39,47.901306.00,0.07,0.08,-10.08,-0.00,0.00,0.00,-29.87,-19.39,47.901358.00,0.11,0.14,-10.37,-0.00,-0.00,-0.00,-29.69,-19.92,46.711410.00,0.07,0.05,-10.06,-0.00,-0.00,0.00,-29.69,-19.92,46.711462.00,0.12,0.09,-9.93,0.00,0.00,0.00,-29.69,-21.33,48.071514.00,0.05,0.11,-10.60,-0.00,0.00,0.00,-29.69,-21.33,48.071566.00,0.10,0.11,-10.33,0.00,0.00,0.00,-29.69,-21.33,48.071618.00,0.18,0.17,-10.10,0.00,0.00,0.00,-30.22,-20.10,47.221670.00,0.09,0.13,-10.13,-0.00,0.00,0.00,-30.22,-20.10,47.221722.00,0.13,0.07,-10.23,-0.00,0.00,0.00,-30.57,-19.39,47.561774.00,0.14,0.13,-10.12,-0.00,-0.00,0.00,-30.57,-19.39,47.561994.00,0.02,0.05,-10.24,0.00,0.00,0.00,-29.69,-20.98,47.052046.00,0.18,0.10,-10.11,0.00,0.00,0.00,-29.69,-20.98,47.052098.00,0.06,0.11,-10.25,-0.00,0.00,0.00,-29.69,-20.98,47.052150.00,0.16,0.09,-10.15,0.00,0.00,0.00,-31.45,-19.57,47.392203.00,0.09,0.18,-10.24,-0.00,0.00,0.00,-31.45,-19.57,47.392255.00,0.13,0.10,-10.22,-0.00,-0.00,0.00,-31.28,-20.10,47.902307.00,0.11,0.14,-10.22,-0.00,-0.00,0.00,-31.28,-20.10,47.902359.00,0.13,0.11,-10.22,0.00,0.00,0.00,-30.92,-18.33,47.902411.00,0.10,0.13,-10.24,-0.00,0.00,0.00,-30.92,-18.33,47.902463.00,0.14,0.12,-10.19,0.00,0.01,0.00,-30.75,-19.22,47.392515.00,0.16,0.13,-9.94,0.00,0.00,0.00,-30.75,-19.22,47.392568.00,0.13,0.07,-10.14,-0.00,0.00,0.00,-30.75,-19.22,47.392620.00,0.15,0.15,-10.20,-0.00,0.00,0.00,-30.57,-20.10,47.902672.00,0.13,0.14,-10.20,-0.00,0.00,0.00,-30.57,-20.10,47.902724.00,0.13,0.11,-10.18,-0.00,0.00,0.00,-30.22,-19.75,48.242776.00,0.12,0.15,-10.19,-0.00,0.00,0.00,-30.22,-19.75,48.242828.00,0.14,0.11,-10.18,-0.00,0.00,0.00,-30.22,-19.75,48.242880.00,0.11,0.15,-10.35,-0.00,0.00,0.00,-30.05,-20.27,47.732933.00,0.14,0.16,-10.25,-0.00,0.00,0.00,-30.05,-20.27,47.732985.00,0.26,0.33,-9.96,-0.01,0.00,-0.00,-30.75,-20.27,48.073230.00,0.15,0.03,-10.19,-0.00,0.00,0.00,-28.99,-19.92,47.733282.00,0.13,0.14,-10.18,-0.00,0.00,0.00,-28.99,-19.92,47.733334.00,0.14,0.11,-10.18,-0.00,0.00,-0.00,-28.99,-19.92,47.733386.00,0.11,0.11,-10.20,-0.00,0.00,0.00,-31.28,-19.75,46.883438.00,0.13,0.15,-10.20,-0.00,0.00,0.00,-31.28,-19.75,46.883490.00,0.12,0.11,-10.20,-0.00,-0.00,0.00,-30.05,-20.27,46.373542.00,0.12,0.15,-10.21,-0.00,-0.00,-0.00,-30.05,-20.27,46.373595.00,0.14,0.10,-10.24,-0.00,0.00,0.00,-30.05,-20.27,46.373647.00,0.12,0.13,-10.21,-0.00,-0.00,0.00,-31.80,-20.98,48.413699.00,0.15,0.12,-10.18,-0.00,0.00,0.00,-31.80,-20.98,48.413751.00,0.12,0.17,-10.20,-0.00,-0.00,0.00,-30.22,-19.04,47.903803.00,0.13,0.12,-10.11,-0.00,-0.00,0.00,-30.22,-19.04,47.903856.00,0.14,0.11,-10.15,0.00,0.00,0.00,-30.92,-20.80,46.543908.00,0.14,0.11,-10.17,-0.00,-0.00,0.00,-30.92,-20.80,46.543960.00,0.13,0.10,-10.22,-0.00,-0.00,0.00,-30.92,-20.80,46.544012.00,0.14,0.11,-10.22,-0.00,0.00,0.00,-29.34,-20.63,47.734064.00,0.11,0.11,-10.20,-0.00,0.00,0.00,-29.34,-20.63,47.734116.00,0.13,0.13,-10.21,-0.00,-0.00,0.00,-30.22,-20.10,46.204168.00,0.11,0.10,-10.20,0.00,-0.00,0.00,-30.22,-20.10,46.204392.00,0.14,0.12,-10.19,-0.00,0.00,0.00,-30.57,-21.51,47.904444.00,0.14,0.09,-10.20,-0.00,0.00,0.00,-30.57,-21.51,47.904496.00,0.14,0.13,-10.21,-0.00,0.00,0.00,-31.45,-19.57,47.394548.00,0.14,0.11,-10.18,0.00,-0.00,0.00,-31.45,-19.57,47.394601.00,0.13,0.16,-10.20,-0.00,-0.00,0.00,-31.45,-19.57,47.394653.00,0.13,0.11,-10.21,-0.00,0.00,-0.00,-31.10,-18.86,46.714705.00,0.13,0.13,-10.18,-0.00,0.00,0.00,-31.10,-18.86,46.714757.00,0.15,0.11,-10.23,-0.00,0.00,0.00,-31.28,-19.75,46.544810.00,0.13,0.12,-10.19,-0.00,0.00,0.00,-31.28,-19.75,46.544862.00,0.14,0.11,-10.21,-0.00,-0.00,0.00,-31.45,-19.57,47.054914.00,0.12,0.12,-10.20,-0.00,0.00,0.00,-31.45,-19.57,47.054966.00,0.13,0.13,-10.20,-0.00,0.00,0.00,-31.45,-19.57,47.055019.00,0.14,0.12,-10.20,-0.00,0.00,0.00,-30.40,-19.92,47.395071.00,0.14,0.13,-10.19,-0.00,0.00,0.00,-30.40,-19.92,47.395123.00,0.12,0.10,-10.21,-0.00,-0.00,0.00,-31.10,-19.22,47.395175.00,0.12,0.14,-10.19,-0.00,0.00,0.00,-31.10,-19.22,47.395228.00,0.16,0.12,-10.20,-0.00,0.00,0.00,-31.45,-20.98,47.395280.00,0.11,0.08,-10.21,-0.00,0.00,0.00,-31.45,-20.98,47.395332.00,0.14,0.12,-10.19,-0.00,-0.00,0.00,-31.45,-20.98,47.395512.00,0.14,0.12,-10.20,-0.00,-0.00,0.00,-29.52,-21.16,45.525565.00,0.13,0.11,-10.19,-0.00,0.00,0.00,-29.52,-21.16,45.525617.00,0.12,0.12,-10.21,-0.00,-0.00,0.00,-30.40,-19.22,45.695669.00,0.11,0.13,-10.20,-0.00,-0.00,0.00,-30.40,-19.22,45.695722.00,0.14,0.11,-10.20,-0.00,-0.00,0.00,-30.40,-19.22,45.695774.00,0.15,0.14,-10.18,-0.00,0.00,0.00,-29.17,-19.39,45.865826.00,0.15,0.08,-10.20,0.00,-0.00,0.00,-29.17,-19.39,45.865879.00,0.12,0.11,-10.23,-0.00,0.00,0.00,-30.22,-20.10,46.885931.00,0.15,0.12,-10.17,-0.00,-0.00,0.00,-30.22,-20.10,46.885983.00,0.09,0.15,-10.18,-0.00,0.00,0.00,-30.22,-20.10,46.886036.00,0.13,0.07,-10.20,0.00,0.00,0.00,-29.87,-19.39,47.566088.00,0.13,0.15,-10.18,-0.00,0.00,0.00,-29.87,-19.39,47.566140.00,0.13,0.08,-10.22,0.00,0.00,0.00,-30.22,-19.75,46.886193.00,0.12,0.13,-10.21,-0.00,-0.00,0.00,-30.22,-19.75,46.886245.00,0.15,0.13,-10.20,-0.00,0.00,0.00,-29.34,-19.92,47.056297.00,0.13,0.10,-10.20,-0.00,0.00,0.00,-29.34,-19.92,47.056350.00,0.15,0.11,-10.19,-0.00,-0.00,0.00,-29.34,-19.92,47.056402.00,0.14,0.13,-10.20,-0.00,0.00,0.00,-29.87,-19.04,46.886454.00,0.14,0.12,-10.20,-0.00,0.00,0.00,-29.87,-19.04,46.886683.00,0.14,0.12,-10.20,-0.00,0.00,0.00,-29.87,-20.10,46.206736.00,0.13,0.13,-10.21,-0.00,-0.00,0.00,-30.40,-20.27,46.716788.00,0.14,0.10,-10.21,-0.00,-0.00,0.00,-30.40,-20.27,46.716841.00,0.13,0.13,-10.20,-0.00,0.00,0.00,-30.40,-20.27,46.716893.00,-0.22,0.84,-10.23,-0.04,-0.02,-0.10,-30.22,-20.80,46.546945.00,0.10,0.19,-10.08,0.05,0.02,-1.05,-30.22,-20.80,46.546998.00,-0.34,0.50,-10.43,-0.08,0.28,0.66,-29.87,-19.39,47.567050.00,1.46,-0.20,-10.92,-0.01,1.12,1.02,-29.87,-19.39,47.567102.00,0.20,-1.41,-9.62,0.85,1.22,1.60,-29.87,-19.39,47.567155.00,3.58,0.26,-10.23,0.50,1.56,2.56,-24.42,-19.57,47.397207.00,1.99,-0.56,-12.56,0.51,0.68,-0.36,-24.42,-19.57,47.397260.00,1.58,-1.15,-7.07,0.54,-1.40,-0.16,-17.57,-13.05,46.887312.00,1.70,-0.68,-13.78,-0.02,-0.09,0.24,-17.57,-13.05,46.887365.00,2.05,-1.05,-11.97,0.81,-0.43,-0.04,-17.57,-13.05,46.887417.00,1.38,-2.71,-8.04,0.02,-0.74,-0.07,-18.80,-13.93,47.397469.00,0.88,-0.94,-9.68,0.58,-0.49,0.02,-18.80,-13.93,47.397522.00,-0.10,-2.21,-8.77,0.30,-0.44,-0.06,-24.95,-10.58,47.227574.00,0.54,-1.76,-8.58,0.24,-0.41,-0.35,-24.95,-10.58,47.227627.00,0.42,-3.27,-7.95,-0.18,-0.18,-0.20,-25.13,-11.11,47.737850.00,9.17,-0.52,-5.53,0.97,-4.35,-1.04,-25.48,-12.87,48.757902.00,9.74,1.50,4.02,1.83,-4.35,-0.77,-53.94,-12.52,33.807955.00,6.37,-2.78,16.64,-0.82,-4.35,-2.07,-53.94,-12.52,33.808007.00,4.24,-9.06,26.50,-0.96,0.24,-0.96,-63.61,-4.58,5.108060.00,9.16,2.68,-5.85,-4.38,4.37,3.39,-63.61,-4.58,5.108112.00,-5.10,7.76,-39.23,-1.74,4.37,2.29,-42.17,-19.75,43.488165.00,-5.39,-0.76,-33.05,0.20,-0.72,-0.39,-42.17,-19.75,43.488217.00,-2.77,2.36,-16.84,1.44,-2.87,-0.15,-42.17,-19.75,43.488270.00,-1.02,-0.65,-4.85,1.16,-4.35,-0.72,-49.73,-15.69,39.248322.00,-0.92,-2.12,3.45,1.37,-3.78,-0.73,-49.73,-15.69,39.248375.00,-3.65,-2.13,-0.33,0.47,-1.39,0.14,-59.74,-11.99,24.808427.00,-4.33,-2.96,1.09,0.02,-1.22,0.12,-59.74,-11.99,24.808480.00,-5.83,-1.07,-0.15,-0.84,0.40,0.29,-59.74,-11.99,24.808532.00,-8.23,-3.72,-7.82,-1.25,1.43,0.02,-62.20,-11.99,21.408585.00,-6.51,-1.15,-11.11,-0.17,1.10,0.27,-62.20,-11.99,21.408637.00,-9.52,2.42,-9.28,0.12,-0.96,-0.47,-58.51,-16.04,26.678690.00,-6.11,-3.84,-9.85,3.39,-1.88,-2.82,-58.51,-16.04,26.678742.00,-5.92,-3.19,-6.06,4.35,-4.06,-2.48,-58.51,-16.04,26.678794.00,-4.32,-2.61,1.59,4.35,-4.35,-0.18,-61.15,2.47,12.918847.00,-3.09,-1.94,3.88,4.35,-4.35,0.75,-61.15,2.47,12.919067.00,-2.31,13.18,1.36,-4.38,1.12,-1.64,-38.66,-47.95,-20.389120.00,-4.87,1.90,9.78,2.54,-1.99,-0.74,-42.70,-51.65,-11.729172.00,-6.42,8.76,6.71,-0.28,-0.85,-0.97,-42.70,-51.65,-11.729225.00,-3.03,0.65,7.17,0.78,-1.00,-1.40,-42.70,-51.65,-11.729278.00,-4.16,12.47,5.33,4.18,1.36,1.87,-41.29,-51.65,-11.729330.00,-3.95,2.27,6.32,-1.57,-0.06,-2.29,-41.29,-51.65,-11.729383.00,-3.74,4.90,6.49,-3.86,0.73,0.23,-45.16,-51.65,-10.709436.00,-5.25,3.81,5.73,-2.16,0.71,-1.67,-45.16,-51.65,-10.709488.00,-6.56,3.84,6.07,-4.38,-0.19,-1.51,-45.16,-51.65,-10.709541.00,-5.30,-0.67,7.55,-3.72,0.30,-2.02,-49.37,-36.85,-25.659593.00,-5.64,-3.23,8.55,-2.51,0.29,-1.71,-49.37,-36.85,-25.659646.00,-6.49,-2.53,4.63,-2.31,1.48,-1.60,-50.96,-16.57,-28.879699.00,-6.15,-3.01,8.05,-0.78,0.86,0.16,-50.96,-16.57,-28.879751.00,-6.71,-6.70,8.26,0.27,-0.14,0.82,-55.00,-10.40,-23.619804.00,-6.18,-5.45,5.44,0.90,0.53,1.49,-55.00,-10.40,-23.619857.00,-10.26,1.71,9.32,0.89,0.17,1.43,-55.00,-10.40,-23.619909.00,-7.93,-0.97,6.09,1.02,0.20,0.88,-55.00,-20.27,-22.939962.00,-4.60,3.27,4.57,-0.27,0.36,0.61,-55.00,-20.27,-22.9310014.00,-17.57,-4.92,8.66,-0.27,0.32,-0.80,-57.28,-23.98,-22.0810249.00,-8.93,-12.90,-6.85,0.12,2.09,-1.37,-56.40,-18.51,-22.5910302.00,-15.27,-9.05,5.67,-0.60,2.72,-2.10,-60.97,-18.86,-14.4410354.00,-7.74,-4.93,3.03,0.12,0.82,-0.09,-60.97,-18.86,-14.4410407.00,-8.66,-1.32,3.04,0.81,0.05,0.76,-65.19,-17.10,-9.6810460.00,-9.69,-2.20,2.31,0.45,0.08,0.28,-65.19,-17.10,-9.6810513.00,-7.95,-2.37,4.30,0.13,0.22,0.08,-62.73,-20.98,-6.9610565.00,-11.93,-0.74,0.16,0.21,0.68,0.30,-62.73,-20.98,-6.9610618.00,-10.30,-0.05,4.48,-0.61,0.19,-0.08,-62.73,-20.98,-6.9610671.00,-8.65,-1.18,4.47,-1.09,-0.31,0.62,-63.43,-21.68,-5.2710723.00,-8.96,-1.17,3.23,-0.36,-0.85,0.84,-63.43,-21.68,-5.2710776.00,-9.68,-0.99,4.34,0.49,-0.58,0.32,-63.96,-23.62,-8.1510829.00,-9.35,-1.16,3.04,0.28,-0.14,-0.33,-63.96,-23.62,-8.1510882.00,-12.73,-1.55,3.86,-0.23,0.70,-0.97,-63.08,-22.39,-7.9810934.00,-7.11,-1.98,3.12,-0.95,0.97,-0.86,-63.08,-22.39,-7.9810987.00,-8.35,-3.93,-4.27,-1.07,0.59,-0.47,-63.08,-22.39,-7.9811040.00,-8.13,-4.73,-2.01,-0.84,0.07,0.21,-63.96,-17.63,-3.7411092.00,-9.91,-2.73,4.32,-0.02,-0.80,0.89,-63.96,-17.63,-3.7411145.00,-7.69,-2.91,0.11,-0.13,-0.66,0.55,-62.90,-20.10,-7.4711198.00,-10.09,-1.02,6.27,0.74,-0.71,0.38,-62.90,-20.10,-7.4711431.00,-8.51,-3.34,0.27,-1.23,0.65,-0.25,-64.49,-18.51,-5.2711484.00,-9.16,-2.30,3.28,-0.91,-0.21,0.37,-64.49,-18.51,-5.2711536.00,-9.92,-2.95,4.99,-0.11,-0.76,0.72,-64.66,-17.28,-5.1011589.00,-7.10,-2.67,3.86,0.27,-1.08,0.82,-64.66,-17.28,-5.1011642.00,-8.61,-2.58,3.26,0.58,-0.49,-0.14,-63.43,-20.63,-11.0411695.00,-9.93,-0.81,5.85,0.32,-0.04,-0.15,-63.43,-20.63,-11.0411748.00,-9.21,-2.21,1.67,0.16,0.32,-0.23,-63.43,-20.63,-11.0411800.00,-9.78,-4.63,0.61,-1.02,1.27,-0.87,-63.78,-19.92,-9.0011853.00,-10.14,-2.10,2.42,-1.22,0.76,-0.18,-63.78,-19.92,-9.0011906.00,-7.83,-4.30,-2.11,-1.36,0.56,-0.21,-65.72,-17.28,-4.7611959.00,-8.77,-4.80,0.91,-0.40,-0.35,0.32,-65.72,-17.28,-4.7612011.00,-10.26,-4.22,0.40,-0.06,-0.86,0.70,-64.31,-17.28,-5.7712064.00,-10.92,-2.02,6.12,0.62,-1.01,0.62,-64.31,-17.28,-5.7712117.00,-10.20,-1.05,5.07,0.66,-0.51,0.12,-64.31,-17.28,-5.7712170.00,-9.63,-2.13,3.32,0.35,0.13,-0.45,-62.38,-21.33,-12.7412223.00,-7.90,-6.18,-6.19,-0.18,1.07,-0.91,-62.38,-21.33,-12.7412276.00,-8.05,-2.20,-5.74,-1.24,1.23,-0.37,-64.13,-18.16,-8.6612328.00,-8.65,-2.72,-1.12,-1.28,0.94,-0.11,-64.13,-18.16,-8.6612381.00,-9.36,-3.31,0.14,-1.06,0.21,0.06,-63.26,-15.16,-5.4412601.00,-9.91,-2.46,4.30,0.62,-0.23,-0.07,-63.43,-18.51,-9.0012654.00,-9.40,-2.32,6.15,-0.19,0.70,-0.38,-64.13,-17.45,-11.0412707.00,-8.68,-2.97,5.36,-0.85,0.93,-0.23,-64.13,-17.45,-11.0412760.00,-9.48,-1.31,4.13,-1.47,0.69,0.42,-63.61,-15.51,-5.1012813.00,-9.13,-3.66,-0.33,-0.06,-0.69,0.32,-63.61,-15.51,-5.1012866.00,-15.75,0.80,0.66,0.36,-0.92,-0.03,-63.61,-15.51,-5.1012918.00,-2.32,-11.70,2.02,1.91,-2.75,-4.32,-63.43,-16.75,-9.3412971.00,-7.02,-4.74,11.26,1.92,-3.43,-1.08,-63.43,-16.75,-9.3413024.00,-2.37,-11.09,3.76,1.34,-0.90,-1.02,-52.01,-4.23,-24.1213077.00,-4.02,0.89,-1.47,4.35,-1.24,3.14,-52.01,-4.23,-24.1213130.00,-4.35,7.41,8.27,4.35,-0.96,4.30,-52.01,-4.23,-24.1213183.00,-8.66,5.53,3.85,-1.83,1.14,0.86,-48.50,-48.66,-12.9113235.00,-10.59,11.11,15.98,-4.38,-1.71,-3.00,-48.50,-48.66,-12.9113288.00,2.23,-4.66,6.86,-4.38,2.82,-4.32,-50.25,-37.37,-23.4413341.00,-7.75,0.09,6.19,-0.35,2.17,-1.01,-50.25,-37.37,-23.4413394.00,-9.62,-1.65,3.75,0.51,0.93,-0.15,-58.86,-22.04,-18.1713447.00,-7.83,-0.54,5.70,0.68,0.10,0.21,-58.86,-22.04,-18.1713500.00,-8.41,-0.87,4.91,0.51,-0.16,0.31,-58.86,-22.04,-18.1713553.00,-8.74,-1.92,4.33,0.20,0.36,-0.15,-60.09,-24.68,-14.6113787.00,-8.77,-0.25,5.18,-0.27,-0.05,0.19,-61.15,-26.44,-12.2313840.00,-7.78,-1.12,3.92,-0.07,-0.15,0.39,-61.15,-26.44,-12.2313893.00,-8.26,-0.95,5.34,0.21,-0.23,0.43,-61.50,-26.80,-14.2713946.00,-8.33,0.60,5.64,0.38,-0.03,-0.04,-61.50,-26.80,-14.2713999.00,-8.54,0.95,5.64,0.07,-0.07,-0.07,-61.50,-26.80,-14.2714051.00,-10.19,4.08,8.68,-0.56,-0.05,-0.32,-60.09,-29.27,-14.6114104.00,-6.98,-2.62,6.45,-0.77,0.68,-1.13,-60.09,-29.27,-14.6114157.00,-8.04,-2.06,5.99,-1.06,0.48,-0.61,-61.67,-20.63,-13.4214210.00,-8.12,-2.01,3.56,-0.80,0.17,0.15,-61.67,-20.63,-13.4214263.00,-8.75,0.78,4.45,-0.33,-0.50,1.25,-61.67,-21.68,-13.7614316.00,-8.66,-2.67,5.66,0.54,-0.69,1.00,-61.67,-21.68,-13.7614369.00,-9.91,2.55,7.22,0.64,-0.51,0.81,-61.67,-21.68,-13.7614422.00,-8.73,-0.59,4.49,0.17,-0.06,-0.15,-60.80,-27.15,-16.6514475.00,-10.67,4.03,6.75,-1.00,0.34,-0.44,-60.80,-27.15,-16.6514528.00,-7.20,-4.52,-0.73,-1.09,0.89,-0.90,-60.97,-22.39,-14.7814581.00,-8.56,0.77,4.89,-1.22,0.33,0.07,-60.97,-22.39,-14.7814634.00,-8.52,-2.83,1.04,-1.03,0.17,-0.01,-60.97,-22.39,-14.7814687.00,-7.73,-3.41,3.56,-0.21,-0.43,0.48,-61.67,-19.57,-13.4214739.00,-8.54,-0.57,5.18,0.35,-0.58,0.62,-61.67,-19.57,-13.4214971.00,-8.61,-2.91,2.94,-1.06,0.63,-0.52,-60.62,-23.45,-17.4915024.00,-8.67,-2.17,2.57,-0.90,0.16,0.25,-61.67,-18.51,-16.1415078.00,-8.19,-1.51,3.52,-0.73,-0.38,0.56,-61.67,-18.51,-16.1415131.00,-8.19,-2.40,4.24,-0.08,-0.69,0.62,-61.67,-18.51,-16.1415184.00,-8.62,-2.55,5.02,0.38,-0.35,-0.03,-60.62,-20.63,-16.4815237.00,-8.79,-1.28,4.36,0.26,-0.02,-0.03,-60.62,-20.63,-16.4815290.00,-8.34,-1.51,5.41,-0.15,0.31,-0.32,-60.27,-22.74,-16.8215343.00,-10.14,2.06,5.84,-0.91,0.44,-0.21,-60.27,-22.74,-16.8215396.00,-8.84,-1.67,4.28,-0.87,0.33,-0.10,-59.92,-18.16,-15.4615449.00,-8.54,-1.80,3.41,-0.66,-0.04,0.31,-59.92,-18.16,-15.4615502.00,-8.87,-3.27,6.24,-0.16,-0.47,0.50,-59.92,-18.16,-15.4615555.00,-5.78,-4.07,0.82,0.43,-0.36,0.07,-61.32,-17.81,-17.8315608.00,-7.95,-1.44,3.34,0.33,-0.36,0.03,-61.32,-17.81,-17.8315661.00,-8.43,-3.13,3.76,0.53,-0.17,-0.17,-60.44,-19.75,-19.3615715.00,-8.89,-1.00,5.02,0.30,0.01,-0.00,-60.44,-19.75,-19.3615768.00,-7.18,-2.00,3.75,-0.92,0.77,-0.54,-62.90,-19.75,-17.6615821.00,-9.26,-1.96,4.45,-0.69,0.30,-0.21,-62.90,-19.75,-17.6615874.00,-9.30,-2.14,5.77,-0.63,0.19,0.01,-62.90,-19.75,-17.6615927.00,-8.49,-2.28,3.98,-0.69,0.06,0.20,-60.44,-16.22,-16.3116147.00,-8.88,-2.09,3.99,0.50,-0.09,-0.21,-60.97,-20.27,-19.5316200.00,-9.09,-1.87,4.66,0.39,-0.02,0.01,-60.97,-20.27,-19.5316253.00,-9.27,-1.48,5.59,-0.34,0.36,-0.30,-60.97,-20.27,-19.5316306.00,-8.18,-3.05,3.63,-0.89,0.58,-0.22,-57.98,-18.33,-18.3416359.00,-8.25,-5.90,6.85,-0.68,0.45,-0.06,-57.98,-18.33,-18.3416412.00,-9.01,-2.80,5.37,-0.64,-0.09,0.20,-60.44,-15.87,-16.6516466.00,-8.30,-3.62,3.39,-0.37,-0.31,0.41,-60.44,-15.87,-16.6516519.00,-9.19,0.14,4.03,-0.11,-0.25,0.17,-60.27,-17.10,-18.1716572.00,-10.66,-0.25,6.25,0.49,-0.68,0.45,-60.27,-17.10,-18.1716625.00,-8.13,-2.04,2.63,0.75,-0.32,-0.06,-60.27,-17.10,-18.1716678.00,-9.03,-1.97,4.83,0.33,-0.07,-0.03,-58.86,-19.57,-19.8716731.00,-8.73,-1.74,3.54,0.12,0.08,-0.11,-58.86,-19.57,-19.8716785.00,-8.87,-2.99,3.90,-0.24,0.37,-0.34,-58.69,-18.33,-18.6816838.00,-8.24,-1.61,0.30,-0.75,0.60,-0.24,-58.69,-18.33,-18.6816891.00,-8.06,-2.42,0.49,-0.85,0.57,-0.21,-58.69,-18.33,-18.6816944.00,-8.97,-2.17,0.79,-0.75,0.35,0.13,-60.62,-14.99,-17.4916997.00,-8.12,-3.34,3.16,-0.44,-0.15,0.46,-60.62,-14.99,-17.4917050.00,-8.26,-3.02,3.64,-0.29,-0.39,0.41,-61.32,-14.63,-16.4817104.00,-6.46,-1.59,3.50,0.25,-0.66,0.57,-61.32,-14.63,-16.4817335.00,-8.92,-2.96,4.20,-0.45,0.45,-0.40,-58.51,-19.92,-21.9117388.00,-7.98,-4.13,2.95,-0.88,1.04,-0.59,-58.51,-19.92,-21.9117442.00,-8.84,-1.47,3.30,-0.75,0.50,0.25,-60.80,-15.87,-20.7217495.00,-9.32,-1.58,2.87,-0.71,0.08,0.30,-60.80,-15.87,-20.7217548.00,-8.26,-1.59,2.38,-0.37,-0.29,0.50,-61.50,-14.81,-16.6517601.00,-8.08,-2.16,2.44,0.02,-0.63,0.37,-61.50,-14.81,-16.6517654.00,-7.82,-2.68,2.55,0.37,-0.38,0.01,-58.34,-15.16,-20.0417708.00,-9.44,-1.97,3.81,0.79,-0.48,0.12,-58.34,-15.16,-20.0417761.00,-9.46,-2.88,4.89,0.47,-0.22,-0.20,-58.34,-15.16,-20.0417814.00,-9.31,-0.82,5.65,0.04,0.16,-0.14,-57.98,-18.33,-21.0617867.00,-7.24,-3.74,0.02,-0.73,1.15,-0.46,-57.98,-18.33,-21.0617921.00,-9.33,-1.94,-0.19,-0.81,0.44,-0.05,-59.21,-15.69,-18.5117974.00,-8.85,-1.95,2.09,-0.61,0.29,0.11,-59.21,-15.69,-18.5118027.00,-9.05,-1.99,2.72,-0.53,-0.06,0.18,-60.27,-14.28,-17.8318080.00,-9.15,-2.11,1.87,-0.43,0.09,0.08,-60.27,-14.28,-17.8318134.00,-8.66,-2.81,2.90,-0.24,-0.41,0.32,-60.27,-14.28,-17.8318187.00,-8.23,-3.98,1.99,0.23,-0.50,-0.26,-60.27,-13.22,-19.1918240.00,-6.79,-2.83,1.97,0.90,-0.41,-0.05,-60.27,-13.22,-19.1918294.00,-8.46,-3.25,2.84,0.50,-0.08,-0.30,-57.46,-17.45,-21.2318528.00,-8.44,-2.44,-0.49,-0.73,0.51,-0.01,-61.15,-12.69,-18.0018581.00,-9.33,-1.86,2.27,-0.36,0.03,0.30,-61.15,-12.69,-18.0018635.00,-9.49,-1.62,3.19,-0.18,-0.14,0.40,-61.15,-12.69,-18.0018688.00,-9.72,-3.19,2.97,-0.03,-0.34,0.28,-61.15,-12.69,-18.0018741.00,-8.97,-0.32,2.30,0.49,-0.85,0.49,-61.15,-12.69,-18.0018795.00,-8.93,-3.37,4.10,0.70,-0.54,-0.09,-60.80,-13.75,-20.0418848.00,-10.60,-0.82,5.83,0.83,-0.54,0.06,-60.80,-13.75,-20.0418902.00,-9.12,-2.07,5.07,0.15,-0.03,-0.23,-58.34,-15.87,-21.4018955.00,-9.62,-0.41,6.47,-0.30,0.34,-0.22,-58.34,-15.87,-21.4019008.00,-8.32,-2.55,2.20,-1.13,1.08,-0.29,-58.34,-15.87,-21.4019062.00,-8.69,-3.74,3.35,-0.93,0.55,-0.04,-60.97,-12.16,-18.8519115.00,-9.12,-2.49,2.36,-1.09,0.64,0.04,-60.97,-12.16,-18.8519168.00,-8.98,-2.05,0.44,-0.44,0.14,0.38,-60.44,-10.23,-15.9719222.00,-7.96,-4.35,-0.94,0.16,-0.65,0.15,-60.44,-10.23,-15.9719275.00,-7.98,-3.42,-0.00,0.39,-0.71,0.16,-60.44,-10.23,-15.9719329.00,-9.95,-4.18,3.98,0.92,-1.05,0.10,-60.62,-13.22,-19.1919382.00,-8.82,-2.31,2.70,0.43,-0.25,-0.02,-60.62,-13.22,-19.1919435.00,-9.47,-1.92,4.41,0.08,-0.04,-0.01,-59.74,-15.51,-22.7619489.00,-12.01,0.12,11.30,-0.61,0.48,0.06,-59.74,-15.51,-22.7619542.00,-8.95,-4.01,4.23,-1.05,0.94,-0.17,-60.44,-12.34,-18.3419771.00,-11.25,-2.09,5.71,0.74,-0.91,0.18,-61.50,-10.93,-13.5919825.00,-9.71,-1.55,5.65,0.97,-0.86,0.05,-60.27,-13.93,-19.1919878.00,-9.20,-1.54,2.04,0.55,-0.13,-0.14,-60.27,-13.93,-19.1919932.00,-10.11,-1.18,5.27,0.02,0.25,-0.17,-59.04,-14.81,-21.7419985.00,-9.18,-4.18,5.29,-0.94,1.09,-0.28,-59.04,-14.81,-21.7420039.00,-10.26,-1.14,7.12,-1.24,0.78,0.20,-63.96,-11.99,-18.6820092.00,-8.62,-1.56,-2.08,-0.78,0.82,0.40,-63.96,-11.99,-18.6820146.00,-9.06,-2.62,-0.47,-0.29,-0.10,0.07,-63.96,-11.99,-18.6820199.00,-9.94,-0.72,4.96,0.01,-0.53,0.41,-62.90,-11.28,-14.2720253.00,-4.69,-5.96,-0.60,0.71,-1.01,-0.15,-62.90,-11.28,-14.2720306.00,-9.82,-2.27,6.49,0.69,-0.70,-0.18,-59.92,-13.93,-21.2320360.00,-9.41,-0.93,3.52,0.58,-0.49,-0.02,-59.92,-13.93,-21.2320413.00,-9.31,-1.48,3.78,0.28,-0.15,0.10,-56.93,-14.10,-21.4020467.00,-9.87,-2.17,5.03,-0.50,0.74,-0.39,-56.93,-14.10,-21.4020520.00,-8.25,-1.56,-0.28,-1.15,1.19,-0.10,-59.39,-13.75,-21.4020574.00,-8.48,-0.27,-6.06,-1.09,1.02,0.28,-59.39,-13.75,-17.3220627.00,-9.10,-1.47,2.38,-0.63,0.27,0.36,-59.39,-13.75,-17.3220680.00,-9.46,-1.78,-0.19,-0.28,-0.10,0.19,-63.26,-10.58,-14.2720734.00,-8.57,-1.51,2.50,0.67,-1.15,0.33,-63.26,-10.58,-14.2720967.00,-8.76,-4.67,3.71,-0.30,0.57,-0.35,-58.16,-15.69,-22.2521021.00,-9.49,-2.73,3.24,-0.79,0.75,-0.05,-58.16,-15.69,-22.2521074.00,-9.41,-4.49,5.72,-0.97,0.43,0.01,-59.92,-14.28,-20.2121128.00,-9.21,-2.80,1.50,-0.78,0.39,0.02,-59.92,-14.28,-20.2121181.00,-8.87,-2.96,0.81,-0.42,0.06,0.17,-63.43,-11.46,-17.8321235.00,-9.54,-2.86,1.00,-0.03,-0.18,0.02,-63.43,-11.46,-17.8321288.00,-9.61,-0.95,1.99,0.56,-0.69,0.01,-60.27,-12.87,-19.1921342.00,-13.46,0.88,1.33,-0.31,-0.32,-0.57,-60.27,-12.87,-19.1921395.00,-9.48,-1.17,2.13,-0.83,-0.87,-1.90,-60.27,-12.87,-19.1921449.00,-7.51,-2.82,3.17,-0.19,-0.86,-2.08,-57.63,-7.76,-22.0821503.00,-7.88,-6.17,4.40,0.20,-0.30,-2.39,-57.63,-7.76,-22.0821556.00,-6.73,-9.52,1.92,0.98,-0.79,-1.79,-50.43,5.82,-25.6521610.00,-4.96,-5.83,5.23,0.95,-0.13,-0.76,-50.43,5.82,-25.6521663.00,-3.26,-8.99,1.98,1.24,-0.28,-0.88,-47.09,4.23,-28.5421717.00,-3.81,-5.02,5.21,1.65,-0.17,-0.48,-47.09,4.23,-28.5421770.00,-6.18,-6.24,3.26,2.75,0.60,-0.70,-47.09,4.23,-28.5421824.00,-6.10,-3.54,6.30,4.35,0.04,0.60,-47.27,-0.88,-31.0821878.00,-6.81,2.35,7.54,4.35,0.25,0.39,-47.27,-0.88,-31.0821931.00,-7.87,0.12,5.92,4.35,0.09,1.03,-50.08,-32.26,-24.6322154.00,-6.29,-3.48,9.65,-1.30,1.14,-2.42,-46.91,-43.19,-19.5322208.00,-5.28,-2.70,4.10,-0.73,1.20,-0.90,-53.94,-22.74,-25.9922261.00,-5.32,-4.06,3.98,0.24,0.79,-0.23,-53.94,-22.74,-25.9922315.00,-7.61,-2.16,4.81,0.38,1.26,-0.83,-56.23,-17.98,-22.4222368.00,-7.71,-2.61,6.30,0.36,1.20,-0.04,-56.23,-17.98,-22.4222422.00,-8.78,-0.79,1.77,0.01,1.17,0.38,-59.57,-19.22,-14.1022475.00,-8.26,-0.67,3.67,0.47,0.45,0.34,-59.57,-19.22,-14.1022529.00,-8.53,-1.44,4.65,0.18,-0.08,0.15,-59.57,-19.22,-14.1022583.00,-8.79,-2.63,3.92,0.31,0.26,0.03,-61.85,-22.21,-14.9522636.00,-7.97,-0.70,5.41,0.45,0.06,0.24,-61.85,-22.21,-14.9522690.00,-9.56,-1.58,3.42,0.09,0.31,0.18,-61.15,-23.27,-10.8722743.00,-8.15,-1.23,2.44,-0.58,0.09,0.22,-61.15,-23.27,-10.8722797.00,-8.42,-2.36,4.03,-0.32,-0.35,0.82,-62.20,-23.27,-11.8922851.00,-9.77,-0.44,6.62,0.16,-0.50,0.69,-62.20,-23.27,-11.8922904.00,-9.22,-0.23,4.56,0.31,-0.21,0.18,-62.20,-23.27,-11.8922958.00,-8.54,-0.25,4.68,0.23,-0.05,0.06,-60.09,-27.85,-13.2523011.00,-8.49,-0.93,4.67,-0.06,-0.01,-0.18,-60.09,-27.85,-13.2523065.00,-8.59,0.17,4.48,0.01,-0.06,0.04,-60.62,-27.68,-14.7823119.00,-8.48,-0.80,4.77,-0.04,-0.00,-0.09,-60.62,-27.68,-14.7823340.00,-11.45,-6.68,10.15,-0.86,-3.09,-0.60,-56.05,-19.92,-21.2323394.00,-3.15,-3.77,7.93,0.15,-2.39,1.07,-56.05,-19.92,-21.2323447.00,0.35,-1.57,5.76,0.22,-0.85,-0.03,-46.39,-18.69,-31.5923501.00,1.99,0.39,6.96,-1.01,0.15,-0.05,-46.39,-18.69,-31.5923555.00,-4.96,0.01,7.81,-1.55,3.04,-1.35,-47.27,-14.63,-30.4023608.00,-0.23,-6.99,12.88,-4.38,4.37,-2.19,-47.27,-14.63,-30.4023662.00,3.10,-3.75,5.56,-4.38,4.37,0.44,-47.27,-14.63,-30.4023716.00,-4.01,3.12,-2.61,-0.21,4.37,2.40,-60.62,2.29,10.7023769.00,0.11,0.51,-26.72,-4.38,4.37,0.58,-60.62,2.29,10.7023823.00,-1.97,-1.54,-17.38,1.79,1.30,-0.02,-39.89,-7.58,46.3723877.00,-3.32,-4.33,-0.91,3.51,0.49,0.57,-39.89,-7.58,46.3723930.00,-1.44,-7.70,-13.05,-4.38,2.91,-0.58,-32.51,0.88,45.6923984.00,-0.06,-2.10,-15.24,-4.01,0.95,-0.60,-32.51,0.88,45.6924038.00,-1.48,0.99,-9.63,-4.38,-0.92,0.11,-32.51,0.88,45.6924091.00,-0.61,6.58,-12.40,-4.38,-0.29,-0.13,-32.15,-27.33,47.3924145.00,-0.09,3.73,-7.19,0.35,-0.30,-0.70,-32.15,-27.33,47.3924199.00,-0.70,2.21,-5.12,-0.21,0.62,0.07,-36.02,-40.72,39.5824252.00,0.98,5.99,-16.22,-4.38,1.68,0.87,-36.02,-40.72,39.5824306.00,0.32,2.22,0.71,4.35,0.00,0.86,-29.69,-46.72,34.8224540.00,-0.14,3.36,-9.42,2.73,-0.55,0.13,-30.05,-41.08,39.2424594.00,-0.28,1.25,-9.55,2.20,0.08,-0.39,-31.80,-38.96,42.6324648.00,-0.88,0.94,-10.09,1.14,-0.19,-0.27,-31.80,-38.96,42.6324702.00,-0.35,1.00,-10.64,0.08,0.18,-0.14,-32.51,-29.79,45.6924756.00,-0.60,0.91,-10.17,0.00,0.00,0.00,-32.51,-29.79,45.6924809.00,-0.58,0.88,-10.18,-0.04,-0.03,0.00,-32.51,-30.15,45.6924863.00,-0.57,0.83,-10.16,0.02,0.01,-0.00,-32.51,-30.15,45.6924917.00,-0.66,0.61,-9.85,-0.03,-0.02,0.00,-32.51,-30.15,45.6924970.00,0.25,0.14,-10.42,2.19,0.60,-0.66,-33.38,-29.62,45.1825024.00,0.42,-0.74,-10.63,-0.33,-0.03,0.37,-33.38,-29.62,45.1825078.00,-0.73,0.64,-10.48,-0.07,0.02,-0.03,-30.22,-25.39,46.8825132.00,0.45,-0.37,-10.23,-0.09,0.03,-1.55,-30.22,-25.39,46.8825186.00,-0.04,0.45,-10.56,-0.22,-0.12,2.20,-30.40,-26.62,46.7125241.00,-1.47,2.64,-10.20,0.33,-0.16,0.97,-30.40,-26.62,46.7125298.00,-0.01,-0.51,-10.18,-0.13,0.05,-2.09,-30.40,-26.62,46.7125350.00,-0.04,0.91,-10.60,-0.14,0.02,-0.26,-30.92,-26.44,47.2225401.00,0.21,-0.43,-10.24,0.29,-0.02,-0.33,-30.92,-26.44,47.2225453.00,-0.30,0.06,-9.77,-0.15,0.09,0.16,-33.03,-25.03,46.8825652.00,0.35,-0.59,-9.93,0.15,0.12,-0.32,-28.82,-24.33,47.2225704.00,0.11,-0.15,-10.02,-0.11,-0.02,0.06,-28.46,-23.98,47.2225756.00,0.61,0.14,-10.72,-0.36,0.04,0.12,-28.46,-23.98,47.2225808.00,-0.13,-0.45,-9.59,0.18,0.01,0.05,-26.18,-26.97,47.3925859.00,0.28,-0.13,-10.13,-0.16,-0.03,0.11,-26.18,-26.97,47.3925911.00,0.33,0.00,-10.14,-0.09,-0.03,0.01,-26.18,-26.97,47.3925962.00,0.25,0.14,-10.21,0.14,0.01,-0.02,-26.36,-26.44,46.8826014.00,0.26,0.26,-10.36,-0.20,-0.03,-0.25,-26.36,-26.44,46.8826066.00,0.31,-0.09,-10.06,0.05,0.05,-0.22,-28.29,-25.92,50.4526117.00,0.27,0.31,-10.21,-0.17,0.08,-0.11,-28.29,-25.92,50.4526169.00,0.25,0.36,-10.32,-0.02,-0.04,-0.28,-28.99,-26.97,50.1126221.00,0.29,0.08,-10.11,-0.06,-0.05,-0.10,-28.99,-26.97,50.1126272.00,0.36,0.24,-10.29,-0.18,-0.01,-0.22,-28.99,-26.97,50.1126324.00,0.18,0.54,-10.29,-0.05,0.01,-0.00,-29.87,-26.44,52.6526376.00,0.34,0.20,-10.12,0.09,0.03,-0.17,-29.87,-26.44,52.6526427.00,0.20,0.45,-10.27,-0.03,-0.01,0.00,-29.34,-26.27,52.4826479.00,0.34,0.29,-10.16,0.11,0.02,-0.13,-29.34,-26.27,52.4826531.00,0.12,0.41,-10.23,0.03,-0.02,-0.03,-29.34,-26.27,52.4826582.00,0.25,0.33,-10.19,0.05,0.00,-0.12,-28.64,-26.62,52.8226813.00,0.61,-0.56,-10.09,0.59,0.08,-0.26,-28.29,-22.74,49.4326864.00,0.40,-0.20,-10.58,-0.88,0.00,0.48,-28.29,-22.74,49.4326916.00,0.31,0.14,-10.14,0.01,0.01,0.01,-28.29,-22.74,49.4326968.00,0.33,0.22,-10.19,-0.01,-0.00,-0.02,-27.59,-26.27,46.7127019.00,0.29,0.19,-10.20,-0.02,-0.01,-0.02,-27.59,-26.27,46.7127071.00,0.30,0.19,-10.18,-0.01,-0.00,-0.00,-26.88,-26.62,47.0527123.00,0.28,0.23,-10.19,-0.02,-0.00,-0.00,-26.88,-26.62,47.0527175.00,0.33,0.19,-10.19,-0.01,0.00,-0.00,-26.88,-26.62,47.0527226.00,0.31,0.22,-10.17,-0.01,-0.00,0.01,-27.94,-26.27,46.3727278.00,0.31,0.18,-10.18,-0.00,-0.00,0.00,-27.94,-26.27,46.3727329.00,0.30,0.21,-10.18,-0.00,-0.01,0.00,-28.64,-26.27,48.7527381.00,0.31,0.20,-10.16,-0.00,-0.00,-0.00,-28.64,-26.27,48.7527433.00,0.29,0.22,-10.21,-0.01,-0.00,0.00,-28.82,-27.15,46.5427485.00,0.28,0.23,-10.19,-0.00,-0.00,0.01,-28.82,-27.15,46.5427536.00,0.31,0.24,-10.11,-0.00,-0.00,0.01,-28.82,-27.15,46.5427588.00,0.30,0.20,-10.12,-0.00,0.00,0.02,-28.46,-26.44,46.8827640.00,0.31,0.24,-10.20,-0.01,0.00,0.02,-28.46,-26.44,46.8827691.00,0.28,0.24,-10.21,-0.01,0.00,0.03,-29.34,-26.62,48.4127920.00,0.14,0.31,-10.20,0.08,0.02,-0.68,-28.99,-25.21,46.3727972.00,0.43,0.83,-10.00,0.11,0.03,-2.08,-29.17,-26.80,48.9228023.00,0.40,1.24,-10.27,0.05,0.00,-3.29,-29.17,-26.80,48.9228075.00,2.50,-1.83,-10.03,0.13,0.05,-3.30,-32.51,-22.04,47.3928127.00,0.68,-0.30,-10.19,0.09,0.09,-1.98,-32.51,-22.04,47.3928179.00,-0.04,-0.35,-10.44,0.09,0.07,-1.48,-32.51,-22.04,47.3928230.00,-2.17,-1.23,-9.69,0.31,0.12,-2.44,-34.44,-20.10,47.9028282.00,-1.73,5.82,-12.78,-0.05,0.04,-2.94,-34.44,-20.10,47.9028334.00,1.23,-0.67,-9.91,0.12,0.04,-2.35,-35.67,-11.81,46.7128386.00,1.32,-0.49,-10.17,-0.02,-0.05,-1.08,-35.67,-11.81,46.7128438.00,0.34,0.59,-10.17,-0.23,-0.11,-0.10,-35.14,-10.58,47.9028489.00,0.19,0.83,-10.30,-0.01,0.00,-0.41,-35.14,-10.58,47.9028541.00,0.25,0.44,-10.23,0.09,0.02,-0.31,-35.14,-10.58,47.9028593.00,0.14,0.63,-10.24,0.15,0.06,-0.68,-34.97,-10.40,47.0528645.00,0.20,-0.19,-9.47,-0.04,-0.00,-0.59,-34.97,-10.40,47.0528697.00,0.31,0.34,-10.22,0.00,-0.00,-0.01,-35.32,-9.70,48.0728748.00,0.30,0.32,-10.17,0.00,0.00,0.00,-35.32,-9.70,48.0728800.00,0.28,0.85,-10.30,-0.21,-0.03,-0.10,-35.32,-9.70,48.0728852.00,0.23,0.75,-10.45,0.32,0.07,-0.96,-33.21,-7.58,47.7329077.00,0.40,0.19,-10.20,0.02,0.01,-0.00,-34.79,-8.81,46.8829129.00,0.20,0.26,-10.06,0.15,0.04,0.03,-34.79,-8.81,46.8829181.00,0.69,-0.06,-10.18,-0.07,-0.01,0.09,-34.79,-8.81,46.8829232.00,0.27,0.74,-10.38,-0.13,-0.04,0.14,-34.79,-8.46,46.8829284.00,-0.47,1.37,-10.17,0.03,0.01,-0.73,-34.79,-8.46,46.8829336.00,0.71,-0.04,-10.24,-0.06,-0.00,-0.61,-35.14,-7.76,47.5629388.00,0.27,0.44,-10.20,0.03,0.01,-0.04,-35.14,-7.76,47.5629440.00,0.30,0.36,-10.17,-0.11,0.01,-0.03,-34.61,-6.52,47.3929492.00,0.33,0.52,-10.14,0.01,-0.06,-0.06,-34.61,-6.52,47.3929543.00,0.18,0.61,-10.31,-0.05,-0.01,0.02,-34.61,-6.52,47.3929595.00,0.32,0.37,-10.17,0.02,0.01,-0.04,-33.03,-8.81,46.5429647.00,0.03,0.70,-10.24,0.17,0.05,-0.15,-33.03,-8.81,46.5429699.00,0.34,0.31,-10.22,-0.06,0.03,0.00,-33.74,-7.40,45.1829751.00,0.29,0.43,-10.25,0.01,0.02,-0.02,-33.74,-7.40,45.1829803.00,0.40,0.28,-10.15,0.22,0.12,-0.06,-33.74,-7.40,45.1829855.00,0.64,0.13,-10.16,0.07,0.10,0.03,-33.38,-6.70,45.1829907.00,0.26,0.27,-10.05,-0.06,-0.10,-0.13,-33.38,-6.70,45.1829959.00,0.29,0.66,-10.40,0.03,-0.01,0.22,-32.51,-6.17,45.0130011.00,0.62,-0.40,-10.09,0.00,-0.00,-0.40,-32.51,-6.17,45.0130230.00,0.26,0.44,-10.20,0.02,0.01,0.07,-33.56,-4.05,48.0730282.00,0.31,0.32,-10.19,0.01,0.00,0.10,-33.56,-4.05,48.0730334.00,0.24,0.51,-10.22,0.01,-0.00,0.10,-32.33,-4.94,46.5430386.00,0.25,0.39,-10.17,0.02,0.00,0.02,-32.33,-4.94,46.5430437.00,0.28,0.39,-10.19,0.01,0.01,0.00,-32.33,-4.94,46.5430489.00,0.27,0.33,-10.16,0.02,0.00,0.01,-33.38,-5.64,46.2030541.00,0.29,0.38,-10.19,0.01,0.00,-0.01,-33.38,-5.64,46.2030593.00,0.42,0.06,-10.20,0.01,0.01,-0.24,-33.38,-5.99,46.8830645.00,0.24,0.59,-10.22,-0.08,-0.01,-0.00,-33.38,-5.99,46.8830697.00,0.28,0.37,-10.23,0.10,0.04,0.03,-34.09,-5.29,47.2230749.00,0.32,0.32,-10.18,-0.00,0.02,0.02,-34.09,-5.29,47.2230801.00,0.33,0.32,-10.18,0.01,0.01,0.01,-34.09,-5.29,47.2230853.00,0.35,0.16,-10.13,0.04,-0.01,0.14,-33.21,-6.88,49.0930905.00,0.03,0.69,-10.22,-0.02,-0.04,0.29,-33.21,-6.88,49.0930957.00,0.34,0.36,-10.25,-0.00,-0.00,0.00,-33.91,-5.47,46.7131009.00,0.30,0.33,-10.18,0.00,0.00,0.00,-33.91,-5.47,46.7131061.00,0.31,0.33,-10.17,-0.00,-0.00,0.00,-33.91,-5.47,46.7131113.00,0.33,0.33,-10.18,-0.00,0.00,0.00,-33.91,-5.11,47.3931165.00,0.32,0.32,-10.19,-0.00,0.00,0.00,-33.91,-5.11,47.3931217.00,0.31,0.30,-10.19,-0.00,0.00,0.00,-34.61,-5.82,47.7331461.00,0.39,0.37,-10.24,-0.04,-0.01,-0.16,-34.44,-5.99,46.5431513.00,0.38,0.28,-10.21,0.04,0.01,-0.08,-34.44,-5.99,46.5431565.00,0.45,0.38,-10.28,0.01,-0.01,0.02,-34.44,-5.99,46.5431617.00,0.43,0.38,-10.30,-0.00,0.03,0.00,-33.03,-5.29,47.2231669.00,0.23,0.34,-10.11,-0.00,-0.03,0.00,-33.03,-5.29,47.2231721.00,0.33,0.34,-10.20,0.00,0.01,0.00,-33.56,-4.05,48.0731773.00,0.31,0.33,-10.18,-0.00,-0.01,-0.00,-33.56,-4.05,48.0731825.00,0.31,0.31,-10.19,-0.00,-0.01,0.00,-33.74,-5.29,46.5431877.00,0.31,0.33,-10.20,-0.00,-0.00,0.00,-33.74,-5.29,46.5431929.00,0.31,0.32,-10.19,0.00,0.00,0.00,-33.74,-5.29,46.5431981.00,0.30,0.33,-10.17,-0.00,0.00,0.00,-32.86,-5.82,47.3932033.00,0.30,0.33,-10.16,-0.00,-0.00,0.00,-32.86,-5.82,47.3932086.00,0.30,0.32,-10.18,-0.00,-0.00,0.00,-32.86,-6.88,47.0532138.00,0.31,0.33,-10.20,-0.00,0.00,0.00,-32.86,-6.88,47.0532190.00,0.30,0.32,-10.20,-0.00,-0.00,0.00,-32.86,-6.88,47.0532242.00,0.32,0.33,-10.17,-0.00,0.00,0.00,-32.68,-4.58,46.2032294.00,0.30,0.32,-10.16,-0.00,-0.00,0.00,-32.68,-4.58,46.2032346.00,0.31,0.33,-10.21,-0.00,0.00,0.00,-33.38,-6.35,46.5432398.00,0.31,0.31,-10.17,-0.00,-0.00,-0.00,-33.38,-6.35,46.5432622.00,0.31,0.31,-10.20,-0.00,-0.00,0.00,-32.33,-4.58,47.2232674.00,0.33,0.32,-10.20,-0.00,-0.00,0.00,-32.33,-4.58,47.2232726.00,0.31,0.34,-10.18,-0.00,0.00,0.00,-33.56,-4.41,47.7332778.00,0.31,0.33,-10.18,0.00,0.00,0.00,-33.56,-4.41,47.7332830.00,0.32,0.32,-10.18,-0.00,0.00,0.00,-33.56,-4.41,47.7332883.00,0.32,0.32,-10.19,-0.00,0.00,0.00,-33.56,-5.47,47.0532935.00,0.31,0.33,-10.19,-0.00,0.00,0.00,-33.56,-5.47,47.0532987.00,0.32,0.33,-10.20,-0.00,-0.00,0.00,-32.68,-5.64,46.8833039.00,0.32,0.34,-10.17,-0.00,-0.00,0.00,-32.68,-5.64,46.8833091.00,0.31,0.32,-10.22,-0.00,0.00,0.00,-33.38,-6.70,45.8633143.00,0.38,0.28,-10.21,-0.02,0.02,-0.01,-33.38,-6.70,45.8633195.00,0.31,0.43,-10.24,-0.00,-0.01,0.05,-32.33,-4.58,47.5633248.00,0.47,0.25,-10.23,-0.01,0.06,0.03,-32.33,-4.58,47.5633300.00,0.73,0.40,-10.46,-0.00,-0.04,0.06,-32.33,-4.58,47.5633352.00,0.15,0.32,-10.09,-0.03,-0.01,0.35,-34.26,-6.17,47.0533404.00,0.45,0.41,-10.33,-0.15,-0.03,0.06,-34.26,-6.17,47.0533457.00,0.37,0.49,-10.28,0.03,-0.02,0.00,-35.32,-5.82,48.7533509.00,0.20,0.49,-10.19,-0.00,-0.01,-0.06,-35.32,-5.82,48.7533561.00,0.45,0.20,-10.17,-0.03,0.00,-0.05,-35.32,-5.82,48.7533798.00,0.28,0.32,-10.11,0.06,0.00,0.04,-32.15,-7.23,47.0533850.00,0.25,0.51,-10.26,-0.12,-0.04,-0.00,-34.44,-5.99,48.5833902.00,0.26,0.38,-10.17,0.09,0.02,-0.01,-34.44,-5.99,48.5833954.00,0.27,0.38,-10.20,0.01,-0.01,-0.01,-33.56,-8.29,48.7534007.00,0.30,0.37,-10.18,-0.02,0.02,0.03,-33.56,-8.29,48.7534059.00,0.27,0.44,-10.20,0.05,0.02,-0.02,-33.56,-8.29,48.7534111.00,0.35,0.24,-10.10,0.15,0.08,-0.04,-34.97,-6.52,46.3734163.00,0.30,0.42,-10.22,0.02,0.02,-0.02,-34.97,-6.52,46.3734216.00,0.36,0.24,-10.17,0.01,-0.00,-0.03,-34.79,-7.05,46.5434268.00,0.35,0.31,-10.21,0.03,0.01,0.02,-34.79,-7.05,46.5434320.00,0.33,0.26,-10.13,-0.00,-0.02,-0.01,-34.79,-7.05,46.5434372.00,0.37,0.25,-10.13,-0.06,-0.06,-0.03,-33.03,-6.35,46.8834425.00,0.33,0.32,-10.27,-0.16,-0.04,0.11,-33.03,-6.35,46.8834477.00,0.21,0.42,-10.27,0.00,-0.03,0.08,-34.09,-8.11,47.2234529.00,0.27,0.35,-10.15,0.02,-0.01,-0.00,-34.09,-8.11,47.2234582.00,0.26,0.40,-10.20,0.04,0.01,-0.01,-33.91,-7.58,49.0934634.00,0.30,0.26,-10.15,0.03,-0.00,-0.03,-33.91,-7.58,49.0934686.00,0.27,0.38,-10.22,-0.04,-0.01,0.00,-33.91,-7.58,49.0934738.00,0.24,0.42,-10.22,-0.01,-0.01,-0.00,-34.79,-7.40,49.2634961.00,0.39,0.24,-10.16,0.06,0.06,-0.02,-33.56,-5.82,46.7135014.00,0.29,0.38,-10.35,0.19,0.05,-0.07,-33.56,-5.82,46.7135066.00,0.62,-0.33,-10.02,0.13,0.05,-0.26,-33.56,-5.82,46.7135118.00,0.43,0.20,-10.22,-0.30,-0.01,0.14,-33.38,-4.94,46.5435171.00,0.37,0.22,-10.05,-0.36,-0.21,0.06,-33.38,-4.94,46.5435223.00,-0.04,0.96,-10.42,0.45,0.02,-0.13,-34.26,-5.47,49.4335276.00,0.50,-0.25,-9.98,-0.05,0.03,-0.24,-34.26,-5.47,49.4335328.00,0.26,0.37,-10.01,-0.25,-0.08,0.14,-34.26,-5.47,49.4335380.00,0.33,1.96,-10.39,-0.15,0.04,0.37,-33.38,-5.99,47.9035433.00,0.24,0.42,-10.17,-0.02,0.02,0.04,-33.38,-5.99,47.9035485.00,0.25,0.49,-10.17,0.00,0.00,0.00,-34.44,-7.76,48.2435537.00,0.26,0.45,-10.17,0.01,0.00,0.00,-34.44,-7.76,48.2435590.00,0.29,0.42,-10.18,-0.00,0.00,0.00,-33.56,-7.23,48.7535642.00,0.26,0.42,-10.19,0.00,0.00,0.00,-33.56,-7.23,48.7535694.00,0.28,0.44,-10.19,-0.00,0.00,0.00,-33.56,-7.23,48.7535747.00,0.28,0.44,-10.18,0.00,0.00,0.00,-33.91,-7.93,49.0935799.00,0.28,0.45,-10.19,0.00,-0.00,0.00,-33.91,-7.93,49.0935851.00,0.25,0.44,-10.19,-0.00,-0.00,-0.00,-33.74,-6.70,50.6235904.00,0.28,0.42,-10.18,0.00,0.00,0.00,-33.74,-6.70,50.6236127.00,0.27,0.45,-10.21,0.00,0.00,0.00,-34.44,-7.05,49.9436180.00,0.26,0.43,-10.18,-0.00,-0.00,-0.00,-34.44,-7.05,49.9436232.00,0.28,0.44,-10.20,0.00,-0.00,0.00,-33.74,-5.99,47.2236285.00,0.25,0.45,-10.17,-0.00,-0.01,-0.00,-33.74,-5.99,47.2236337.00,0.23,0.46,-10.32,0.00,0.00,-0.00,-36.02,-7.23,48.7536390.00,0.14,0.65,-10.16,0.04,0.00,-0.11,-36.02,-7.23,48.7536442.00,0.27,0.41,-10.18,-0.03,-0.01,-0.00,-36.02,-7.23,48.7536495.00,0.24,0.42,-10.18,-0.04,-0.01,0.05,-34.26,-6.17,49.7736547.00,0.26,0.42,-10.17,0.01,0.02,0.46,-34.26,-6.17,49.7736600.00,0.26,0.50,-10.29,0.07,0.05,0.08,-33.74,-7.76,47.5636652.00,0.32,0.32,-10.09,0.19,0.03,-0.06,-33.74,-7.76,47.5636705.00,0.30,0.34,-10.18,-0.04,-0.00,0.01,-33.74,-7.76,47.5636757.00,0.32,0.36,-10.16,-0.04,-0.01,0.04,-33.91,-7.23,48.7536810.00,0.35,0.28,-10.19,-0.06,-0.02,0.19,-33.91,-7.23,48.7536862.00,0.30,0.38,-10.19,0.03,0.01,0.02,-34.26,-7.23,47.7336915.00,0.31,0.39,-10.19,0.02,0.02,0.00,-34.26,-7.23,47.7336967.00,0.32,0.40,-10.20,0.08,0.03,-0.05,-33.38,-7.40,46.8837020.00,-0.16,0.58,-10.48,0.27,0.10,-0.78,-33.38,-7.40,46.8837072.00,0.54,-0.18,-10.14,0.11,0.03,-0.48,-33.38,-7.40,46.8837125.00,0.48,0.05,-9.97,-0.21,-0.02,0.02,-33.38,-4.94,45.1837350.00,0.58,-0.12,-9.93,-0.45,-0.18,0.07,-33.38,-5.29,47.9037403.00,0.26,0.51,-10.22,-0.06,-0.05,0.06,-33.38,-5.29,47.9037455.00,0.26,0.46,-10.23,-0.01,-0.00,0.01,-33.38,-5.29,47.9037508.00,0.29,0.45,-10.18,-0.00,-0.00,0.00,-33.56,-5.82,49.4337560.00,0.28,0.45,-10.20,-0.00,-0.00,-0.00,-33.56,-5.82,49.4337613.00,0.28,0.42,-10.22,-0.00,-0.00,-0.00,-33.21,-6.88,49.0937665.00,0.28,0.44,-10.20,0.00,-0.00,0.00,-33.21,-6.88,49.0937718.00,0.28,0.42,-10.19,0.01,-0.00,-0.01,-33.56,-6.17,49.0937770.00,0.26,0.43,-10.16,-0.00,-0.00,-0.00,-33.56,-6.17,49.0937823.00,0.27,0.43,-10.19,-0.00,0.00,0.00,-33.56,-6.17,49.0937876.00,0.26,0.42,-10.18,0.00,-0.00,-0.00,-32.68,-6.35,49.2637928.00,0.28,0.43,-10.19,-0.01,0.00,0.00,-32.68,-6.35,49.2637981.00,0.26,0.43,-10.22,0.00,0.00,0.00,-34.44,-7.05,49.6038033.00,0.30,0.43,-10.20,-0.00,0.00,0.00,-34.44,-7.05,49.6038086.00,0.27,0.43,-10.20,-0.00,-0.00,0.00,-34.44,-7.05,49.6038139.00,0.28,0.43,-10.19,0.02,0.00,-0.01,-35.14,-5.64,48.2438191.00,0.26,0.46,-10.20,0.04,0.01,-0.01,-35.14,-5.64,48.2438244.00,0.28,0.35,-10.17,0.06,-0.01,-0.16,-34.09,-6.70,48.2438296.00,0.16,0.58,-10.30,0.05,0.01,-0.18,-34.09,-6.70,48.2438516.00,0.12,1.08,-10.29,0.03,-0.02,0.47,-34.61,-7.23,48.4138569.00,0.43,-0.01,-9.92,0.47,0.10,-0.96,-34.61,-7.23,48.4138622.00,0.46,-0.27,-9.71,-0.31,-0.12,-1.07,-31.98,-4.94,46.8838674.00,0.92,-0.67,-10.23,-0.75,-0.17,0.54,-31.98,-4.94,46.8838727.00,0.18,0.76,-10.23,0.06,0.00,0.07,-33.91,-6.88,50.1138780.00,0.37,0.33,-10.20,0.03,0.00,-0.17,-33.91,-6.88,50.1138832.00,0.28,0.54,-10.21,-0.01,-0.00,0.00,-33.91,-6.88,50.1138885.00,0.28,0.49,-10.20,-0.00,-0.00,0.00,-34.09,-7.40,48.5838937.00,0.27,0.49,-10.17,-0.00,-0.00,0.00,-34.09,-7.40,48.5838990.00,0.27,0.49,-10.21,0.02,0.00,-0.00,-34.09,-5.64,49.6039043.00,0.28,0.47,-10.19,-0.01,-0.00,0.00,-34.09,-5.64,49.6039095.00,0.28,0.49,-10.20,-0.00,-0.00,0.00,-34.09,-5.64,49.6039148.00,0.28,0.50,-10.20,-0.00,0.00,0.00,-34.26,-5.82,48.4139201.00,0.28,0.48,-10.18,0.00,0.00,0.00,-34.26,-5.82,48.4139253.00,0.27,0.49,-10.21,-0.00,0.00,0.00,-32.68,-6.70,48.5839306.00,0.27,0.49,-10.18,-0.00,-0.00,-0.00,-32.68,-6.70,48.5839359.00,0.27,0.48,-10.18,0.01,0.00,-0.00,-33.56,-6.88,49.0939412.00,0.26,0.49,-10.18,0.00,0.00,0.00,-33.56,-6.88,49.0939464.00,0.26,0.49,-10.20,0.01,-0.00,-0.01,-33.56,-6.88,49.0939701.00,0.23,0.47,-10.20,0.05,0.02,-0.03,-33.56,-7.58,49.4339753.00,0.25,0.51,-10.22,0.06,0.03,-0.03,-34.26,-6.17,49.0939806.00,0.26,0.45,-10.29,0.18,0.07,-0.14,-34.26,-6.17,49.0939859.00,0.41,0.05,-10.08,0.35,0.08,-0.27,-32.15,-6.52,47.0539912.00,0.38,-0.03,-10.11,0.06,-0.00,-0.08,-32.15,-6.52,47.0539965.00,0.63,-0.34,-10.08,-0.39,-0.03,0.04,-32.15,-6.52,47.0540018.00,0.03,1.04,-10.45,-0.25,-0.00,1.19,-32.86,-4.76,47.0540070.00,0.38,0.03,-9.78,0.89,0.12,-0.59,-32.86,-4.76,47.0540123.00,0.38,-0.20,-10.00,-0.17,-0.08,-0.76,-31.98,-3.53,46.5440176.00,0.70,-0.44,-9.86,-0.82,-0.20,-0.06,-31.98,-3.53,46.5440229.00,0.15,0.71,-10.21,-0.02,0.01,0.42,-33.91,-6.17,47.3940282.00,0.29,0.41,-10.15,0.04,-0.00,-0.00,-33.91,-6.17,47.3940334.00,0.27,0.43,-10.20,0.00,-0.01,-0.01,-33.91,-6.17,47.3940387.00,0.28,0.46,-10.20,0.01,0.00,-0.01,-33.91,-6.17,47.3940440.00,0.27,0.44,-10.19,0.01,0.00,-0.02,-33.91,-6.17,47.3940493.00,0.26,0.43,-10.16,0.01,-0.00,-0.07,-32.51,-6.88,47.7340546.00,0.27,0.37,-10.14,0.02,0.00,-0.11,-32.51,-6.88,47.7340599.00,0.29,0.40,-10.18,-0.02,0.00,-0.04,-32.51,-6.88,47.7340652.00,0.27,0.44,-10.19,0.00,0.00,-0.00,-34.09,-4.58,47.5640884.00,0.30,0.35,-10.18,0.01,0.00,-0.15,-33.21,-6.17,48.4140937.00,0.26,0.45,-10.19,0.01,-0.00,-0.09,-33.21,-6.17,48.4140990.00,0.26,0.40,-10.22,0.00,0.00,-0.02,-33.03,-5.99,48.2441043.00,0.17,0.57,-10.17,-0.00,0.01,-0.17,-33.03,-5.99,48.2441096.00,0.33,0.28,-10.15,0.04,0.01,-0.22,-33.03,-5.99,48.2441148.00,0.32,0.33,-10.18,0.01,-0.00,-0.04,-33.74,-5.99,49.6041201.00,0.31,0.32,-10.21,-0.01,-0.00,0.07,-33.74,-5.99,49.6041254.00,0.29,0.38,-10.16,0.01,-0.00,0.21,-32.33,-5.29,48.5841307.00,0.25,0.41,-10.20,0.01,0.01,0.01,-32.33,-5.29,48.5841360.00,0.34,0.28,-10.21,-0.01,-0.01,0.04,-32.33,-5.29,48.5841413.00,0.26,0.42,-10.19,0.00,-0.03,-0.03,-32.68,-4.58,47.5641466.00,0.28,0.35,-10.16,0.01,0.00,-0.03,-32.68,-4.58,47.5641518.00,0.26,0.40,-10.19,0.01,-0.01,-0.00,-34.79,-6.35,49.6041571.00,0.26,0.41,-10.19,-0.03,0.02,0.04,-34.79,-6.35,49.6041624.00,0.25,0.40,-10.19,-0.00,0.00,0.01,-33.38,-5.64,49.2641677.00,0.28,0.37,-10.13,0.02,-0.00,0.02,-33.38,-5.64,49.2641730.00,0.27,0.42,-10.20,0.02,0.03,0.07,-33.91,-5.47,48.0741783.00,0.29,0.35,-10.17,0.00,-0.00,0.00,-33.91,-5.47,48.0741836.00,0.31,0.28,-10.18,-0.04,-0.00,0.06,-33.91,-5.47,48.0741889.00,0.06,0.57,-10.17,-0.03,-0.06,-0.01,-33.74,-4.94,49.2642113.00,0.28,0.37,-10.20,0.03,-0.00,-0.02,-33.03,-5.99,48.2442166.00,0.26,0.33,-10.19,0.04,0.01,-0.01,-33.03,-5.99,48.2442219.00,0.28,0.33,-10.22,0.04,0.01,-0.02,-33.03,-5.99,48.2442272.00,0.17,0.51,-10.04,0.47,0.06,-0.30,-32.51,-5.11,47.0542325.00,0.38,-0.08,-10.10,0.04,0.00,-0.11,-32.51,-5.11,47.0542378.00,0.41,0.08,-10.19,0.08,0.05,0.01,-32.33,-3.53,45.8642430.00,0.38,-0.08,-10.05,-0.25,-0.11,0.18,-32.33,-3.53,45.8642484.00,0.18,0.67,-10.52,-0.24,-0.02,0.64,-33.38,-4.94,48.2442536.00,0.12,0.73,-10.39,0.36,0.11,0.01,-33.38,-4.94,48.2442589.00,0.43,-0.31,-9.94,0.10,-0.12,-0.59,-33.38,-4.94,48.24